subj,session,trial,block,sex,age,date,stim,stim_order,filter,filter_freq,filter_gain,response,rt
13,1,0,0,f,23,2022-05-04 15:57:03.882855,practice/neutre_2_flat.0027.eq.wav,0,1,0.0,-1.83129729,True,2.051
13,1,0,0,f,23,2022-05-04 15:57:03.882855,practice/neutre_2_flat.0027.eq.wav,0,2,104.5876729,2.97663728,True,2.051
13,1,0,0,f,23,2022-05-04 15:57:03.882855,practice/neutre_2_flat.0027.eq.wav,0,3,224.80189054,-4.58686138,True,2.051
13,1,0,0,f,23,2022-05-04 15:57:03.882855,practice/neutre_2_flat.0027.eq.wav,0,4,362.97743001,-2.86666517,True,2.051
13,1,0,0,f,23,2022-05-04 15:57:03.882855,practice/neutre_2_flat.0027.eq.wav,0,5,521.79790965,4.64470445,True,2.051
13,1,0,0,f,23,2022-05-04 15:57:03.882855,practice/neutre_2_flat.0027.eq.wav,0,6,704.34790983,-3.52190172,True,2.051
13,1,0,0,f,23,2022-05-04 15:57:03.882855,practice/neutre_2_flat.0027.eq.wav,0,7,914.17288101,4.26091069,True,2.051
13,1,0,0,f,23,2022-05-04 15:57:03.882855,practice/neutre_2_flat.0027.eq.wav,0,8,1155.34800284,2.97833187,True,2.051
13,1,0,0,f,23,2022-05-04 15:57:03.882855,practice/neutre_2_flat.0027.eq.wav,0,9,1432.55733147,1.87809366,True,2.051
13,1,0,0,f,23,2022-05-04 15:57:03.882855,practice/neutre_2_flat.0027.eq.wav,0,10,1751.18477235,2.2223616,True,2.051
13,1,0,0,f,23,2022-05-04 15:57:03.882855,practice/neutre_2_flat.0027.eq.wav,0,11,2117.41864548,4.10701685,True,2.051
13,1,0,0,f,23,2022-05-04 15:57:03.882855,practice/neutre_2_flat.0027.eq.wav,0,12,2538.37187364,0.09542463,True,2.051
13,1,0,0,f,23,2022-05-04 15:57:03.882855,practice/neutre_2_flat.0027.eq.wav,0,13,3022.22012828,-2.55178159,True,2.051
13,1,0,0,f,23,2022-05-04 15:57:03.882855,practice/neutre_2_flat.0027.eq.wav,0,14,3578.36061576,2.74863978,True,2.051
13,1,0,0,f,23,2022-05-04 15:57:03.882855,practice/neutre_2_flat.0027.eq.wav,0,15,4217.59458808,-0.65377372,True,2.051
13,1,0,0,f,23,2022-05-04 15:57:03.882855,practice/neutre_2_flat.0027.eq.wav,0,16,4952.33712269,-2.89274745,True,2.051
13,1,0,0,f,23,2022-05-04 15:57:03.882855,practice/neutre_2_flat.0027.eq.wav,0,17,5796.8582457,4.2903333,True,2.051
13,1,0,0,f,23,2022-05-04 15:57:03.882855,practice/neutre_2_flat.0027.eq.wav,0,18,6767.56008152,1.82553234,True,2.051
13,1,0,0,f,23,2022-05-04 15:57:03.882855,practice/neutre_2_flat.0027.eq.wav,0,19,7883.29541175,-3.22751051,True,2.051
13,1,0,0,f,23,2022-05-04 15:57:03.882855,practice/neutre_2_flat.0027.eq.wav,0,20,9165.73383021,3.54303899,True,2.051
13,1,0,0,f,23,2022-05-04 15:57:03.882855,practice/neutre_2_flat.0027.eq.wav,0,21,10639.78260555,3.85879184,True,2.051
13,1,0,0,f,23,2022-05-04 15:57:03.882855,practice/neutre_2_flat.0027.eq.wav,0,22,12334.07042541,2.19991202,True,2.051
13,1,0,0,f,23,2022-05-04 15:57:03.882855,practice/neutre_2_flat.0027.eq.wav,0,23,14281.50341712,-0.92445728,True,2.051
13,1,0,0,f,23,2022-05-04 15:57:03.882855,practice/neutre_2_flat.0027.eq.wav,0,24,16519.90424416,2.69785437,True,2.051
13,1,0,0,f,23,2022-05-04 15:57:03.882855,practice/neutre_2_flat.0027.eq.wav,0,25,19092.74669051,-1.34280112,True,2.051
13,1,0,0,f,23,2022-05-04 15:57:03.882855,practice/neutre_2_flat.0027.eq.wav,0,26,22050.0,2.65463794,True,2.051
13,1,0,0,f,23,2022-05-04 15:57:03.882855,practice/neutre_2_flat.0816.eq.wav,1,1,0.0,4.24135293,False,2.051
13,1,0,0,f,23,2022-05-04 15:57:03.882855,practice/neutre_2_flat.0816.eq.wav,1,2,104.5876729,-2.61974138,False,2.051
13,1,0,0,f,23,2022-05-04 15:57:03.882855,practice/neutre_2_flat.0816.eq.wav,1,3,224.80189054,2.16465031,False,2.051
13,1,0,0,f,23,2022-05-04 15:57:03.882855,practice/neutre_2_flat.0816.eq.wav,1,4,362.97743001,-4.37566866,False,2.051
13,1,0,0,f,23,2022-05-04 15:57:03.882855,practice/neutre_2_flat.0816.eq.wav,1,5,521.79790965,2.64382547,False,2.051
13,1,0,0,f,23,2022-05-04 15:57:03.882855,practice/neutre_2_flat.0816.eq.wav,1,6,704.34790983,-3.28204761,False,2.051
13,1,0,0,f,23,2022-05-04 15:57:03.882855,practice/neutre_2_flat.0816.eq.wav,1,7,914.17288101,-0.75468413,False,2.051
13,1,0,0,f,23,2022-05-04 15:57:03.882855,practice/neutre_2_flat.0816.eq.wav,1,8,1155.34800284,4.27019395,False,2.051
13,1,0,0,f,23,2022-05-04 15:57:03.882855,practice/neutre_2_flat.0816.eq.wav,1,9,1432.55733147,0.98702978,False,2.051
13,1,0,0,f,23,2022-05-04 15:57:03.882855,practice/neutre_2_flat.0816.eq.wav,1,10,1751.18477235,0.91141807,False,2.051
13,1,0,0,f,23,2022-05-04 15:57:03.882855,practice/neutre_2_flat.0816.eq.wav,1,11,2117.41864548,-4.52947675,False,2.051
13,1,0,0,f,23,2022-05-04 15:57:03.882855,practice/neutre_2_flat.0816.eq.wav,1,12,2538.37187364,-3.51810954,False,2.051
13,1,0,0,f,23,2022-05-04 15:57:03.882855,practice/neutre_2_flat.0816.eq.wav,1,13,3022.22012828,0.29779116,False,2.051
13,1,0,0,f,23,2022-05-04 15:57:03.882855,practice/neutre_2_flat.0816.eq.wav,1,14,3578.36061576,-2.32142653,False,2.051
13,1,0,0,f,23,2022-05-04 15:57:03.882855,practice/neutre_2_flat.0816.eq.wav,1,15,4217.59458808,3.49146304,False,2.051
13,1,0,0,f,23,2022-05-04 15:57:03.882855,practice/neutre_2_flat.0816.eq.wav,1,16,4952.33712269,-4.11796868,False,2.051
13,1,0,0,f,23,2022-05-04 15:57:03.882855,practice/neutre_2_flat.0816.eq.wav,1,17,5796.8582457,1.79701983,False,2.051
13,1,0,0,f,23,2022-05-04 15:57:03.882855,practice/neutre_2_flat.0816.eq.wav,1,18,6767.56008152,3.79088747,False,2.051
13,1,0,0,f,23,2022-05-04 15:57:03.882855,practice/neutre_2_flat.0816.eq.wav,1,19,7883.29541175,-2.90248152,False,2.051
13,1,0,0,f,23,2022-05-04 15:57:03.882855,practice/neutre_2_flat.0816.eq.wav,1,20,9165.73383021,-1.43520103,False,2.051
13,1,0,0,f,23,2022-05-04 15:57:03.882855,practice/neutre_2_flat.0816.eq.wav,1,21,10639.78260555,-1.84596259,False,2.051
13,1,0,0,f,23,2022-05-04 15:57:03.882855,practice/neutre_2_flat.0816.eq.wav,1,22,12334.07042541,-3.82890127,False,2.051
13,1,0,0,f,23,2022-05-04 15:57:03.882855,practice/neutre_2_flat.0816.eq.wav,1,23,14281.50341712,-0.62188447,False,2.051
13,1,0,0,f,23,2022-05-04 15:57:03.882855,practice/neutre_2_flat.0816.eq.wav,1,24,16519.90424416,-4.28276341,False,2.051
13,1,0,0,f,23,2022-05-04 15:57:03.882855,practice/neutre_2_flat.0816.eq.wav,1,25,19092.74669051,-0.26310594,False,2.051
13,1,0,0,f,23,2022-05-04 15:57:03.882855,practice/neutre_2_flat.0816.eq.wav,1,26,22050.0,-1.30981383,False,2.051
13,1,1,0,f,23,2022-05-04 15:57:03.882855,practice/M_n_cut_smile_controls.wav,0,0,100.0,-0.8413748087013819,True,0.641
13,1,1,0,f,23,2022-05-04 15:57:03.882855,practice/M_n_cut_smile_controls.wav,0,1,191.0,-0.508212207818517,True,0.641
13,1,1,0,f,23,2022-05-04 15:57:03.882855,practice/M_n_cut_smile_controls.wav,0,2,293.0,-0.7064540836890618,True,0.641
13,1,1,0,f,23,2022-05-04 15:57:03.882855,practice/M_n_cut_smile_controls.wav,0,3,406.0,-1.563085776129798,True,0.641
13,1,1,0,f,23,2022-05-04 15:57:03.882855,practice/M_n_cut_smile_controls.wav,0,4,533.0,-1.0042739144132906,True,0.641
13,1,1,0,f,23,2022-05-04 15:57:03.882855,practice/M_n_cut_smile_controls.wav,0,5,673.0,0.5503436455299164,True,0.641
13,1,1,0,f,23,2022-05-04 15:57:03.882855,practice/M_n_cut_smile_controls.wav,0,6,830.0,0.6355236363614536,True,0.641
13,1,1,0,f,23,2022-05-04 15:57:03.882855,practice/M_n_cut_smile_controls.wav,0,7,1004.0,0.18258331583897092,True,0.641
13,1,1,0,f,23,2022-05-04 15:57:03.882855,practice/M_n_cut_smile_controls.wav,0,8,1199.0,1.0775510715714662,True,0.641
13,1,1,0,f,23,2022-05-04 15:57:03.882855,practice/M_n_cut_smile_controls.wav,0,9,1416.0,0.07035631583735258,True,0.641
13,1,1,0,f,23,2022-05-04 15:57:03.882855,practice/M_n_cut_smile_controls.wav,0,10,1657.0,-0.17815117497723656,True,0.641
13,1,1,0,f,23,2022-05-04 15:57:03.882855,practice/M_n_cut_smile_controls.wav,0,11,1926.0,-0.1694125054827026,True,0.641
13,1,1,0,f,23,2022-05-04 15:57:03.882855,practice/M_n_cut_smile_controls.wav,0,12,2226.0,0.16378442502596796,True,0.641
13,1,1,0,f,23,2022-05-04 15:57:03.882855,practice/M_n_cut_smile_controls.wav,0,13,2560.0,0.34787304916463235,True,0.641
13,1,1,0,f,23,2022-05-04 15:57:03.882855,practice/M_n_cut_smile_controls.wav,0,14,2932.0,0.0626149612132311,True,0.641
13,1,1,0,f,23,2022-05-04 15:57:03.882855,practice/M_n_cut_smile_controls.wav,0,15,3346.0,0.2996597360864252,True,0.641
13,1,1,0,f,23,2022-05-04 15:57:03.882855,practice/M_n_cut_smile_controls.wav,0,16,3808.0,0.42937102971314384,True,0.641
13,1,1,0,f,23,2022-05-04 15:57:03.882855,practice/M_n_cut_smile_controls.wav,0,17,4322.0,-0.41737623835229487,True,0.641
13,1,1,0,f,23,2022-05-04 15:57:03.882855,practice/M_n_cut_smile_controls.wav,0,18,4895.0,0.059966459920471,True,0.641
13,1,1,0,f,23,2022-05-04 15:57:03.882855,practice/M_n_cut_smile_controls.wav,0,19,5534.0,0.27708525932290595,True,0.641
13,1,1,0,f,23,2022-05-04 15:57:03.882855,practice/M_n_cut_smile_controls.wav,0,20,6245.0,0.17960724922351168,True,0.641
13,1,1,0,f,23,2022-05-04 15:57:03.882855,practice/M_n_cut_smile_controls.wav,0,21,7037.0,0.1292321690281848,True,0.641
13,1,1,0,f,23,2022-05-04 15:57:03.882855,practice/M_n_cut_smile_controls.wav,0,22,7920.0,0.0646792137345456,True,0.641
13,1,1,0,f,23,2022-05-04 15:57:03.882855,practice/M_n_cut_smile_controls.wav,0,23,8904.0,0.35333251063145654,True,0.641
13,1,1,0,f,23,2022-05-04 15:57:03.882855,practice/M_n_cut_smile_controls.wav,0,24,10000.0,0.5238291016113881,True,0.641
13,1,1,0,f,23,2022-05-04 15:57:03.882855,practice/M_n_cut_antismile_controls.wav,1,0,100.0,0.5258592554383636,False,0.641
13,1,1,0,f,23,2022-05-04 15:57:03.882855,practice/M_n_cut_antismile_controls.wav,1,1,191.0,0.3176326298865731,False,0.641
13,1,1,0,f,23,2022-05-04 15:57:03.882855,practice/M_n_cut_antismile_controls.wav,1,2,293.0,0.44153380230566364,False,0.641
13,1,1,0,f,23,2022-05-04 15:57:03.882855,practice/M_n_cut_antismile_controls.wav,1,3,406.0,0.9769286100811237,False,0.641
13,1,1,0,f,23,2022-05-04 15:57:03.882855,practice/M_n_cut_antismile_controls.wav,1,4,533.0,0.6276711965083066,False,0.641
13,1,1,0,f,23,2022-05-04 15:57:03.882855,practice/M_n_cut_antismile_controls.wav,1,5,673.0,-0.3439647784561977,False,0.641
13,1,1,0,f,23,2022-05-04 15:57:03.882855,practice/M_n_cut_antismile_controls.wav,1,6,830.0,-0.3972022727259084,False,0.641
13,1,1,0,f,23,2022-05-04 15:57:03.882855,practice/M_n_cut_antismile_controls.wav,1,7,1004.0,-0.11411457239935671,False,0.641
13,1,1,0,f,23,2022-05-04 15:57:03.882855,practice/M_n_cut_antismile_controls.wav,1,8,1199.0,-0.6734694197321663,False,0.641
13,1,1,0,f,23,2022-05-04 15:57:03.882855,practice/M_n_cut_antismile_controls.wav,1,9,1416.0,-0.04397269739834536,False,0.641
13,1,1,0,f,23,2022-05-04 15:57:03.882855,practice/M_n_cut_antismile_controls.wav,1,10,1657.0,0.11134448436077295,False,0.641
13,1,1,0,f,23,2022-05-04 15:57:03.882855,practice/M_n_cut_antismile_controls.wav,1,11,1926.0,0.10588281592668904,False,0.641
13,1,1,0,f,23,2022-05-04 15:57:03.882855,practice/M_n_cut_antismile_controls.wav,1,12,2226.0,-0.10236526564122989,False,0.641
13,1,1,0,f,23,2022-05-04 15:57:03.882855,practice/M_n_cut_antismile_controls.wav,1,13,2560.0,-0.21742065572789512,False,0.641
13,1,1,0,f,23,2022-05-04 15:57:03.882855,practice/M_n_cut_antismile_controls.wav,1,14,2932.0,-0.039134350758269425,False,0.641
13,1,1,0,f,23,2022-05-04 15:57:03.882855,practice/M_n_cut_antismile_controls.wav,1,15,3346.0,-0.18728733505401565,False,0.641
13,1,1,0,f,23,2022-05-04 15:57:03.882855,practice/M_n_cut_antismile_controls.wav,1,16,3808.0,-0.2683568935707148,False,0.641
13,1,1,0,f,23,2022-05-04 15:57:03.882855,practice/M_n_cut_antismile_controls.wav,1,17,4322.0,0.26086014897018434,False,0.641
13,1,1,0,f,23,2022-05-04 15:57:03.882855,practice/M_n_cut_antismile_controls.wav,1,18,4895.0,-0.03747903745029435,False,0.641
13,1,1,0,f,23,2022-05-04 15:57:03.882855,practice/M_n_cut_antismile_controls.wav,1,19,5534.0,-0.17317828707681623,False,0.641
13,1,1,0,f,23,2022-05-04 15:57:03.882855,practice/M_n_cut_antismile_controls.wav,1,20,6245.0,-0.1122545307646948,False,0.641
13,1,1,0,f,23,2022-05-04 15:57:03.882855,practice/M_n_cut_antismile_controls.wav,1,21,7037.0,-0.08077010564261548,False,0.641
13,1,1,0,f,23,2022-05-04 15:57:03.882855,practice/M_n_cut_antismile_controls.wav,1,22,7920.0,-0.040424508584090926,False,0.641
13,1,1,0,f,23,2022-05-04 15:57:03.882855,practice/M_n_cut_antismile_controls.wav,1,23,8904.0,-0.22083281914466038,False,0.641
13,1,1,0,f,23,2022-05-04 15:57:03.882855,practice/M_n_cut_antismile_controls.wav,1,24,10000.0,-0.3273931885071175,False,0.641
13,1,2,0,f,23,2022-05-04 15:57:03.882855,practice/neutre_2_flat.0459.eq.wav,0,1,0.0,-0.81064266,True,1.018
13,1,2,0,f,23,2022-05-04 15:57:03.882855,practice/neutre_2_flat.0459.eq.wav,0,2,104.5876729,1.21286582,True,1.018
13,1,2,0,f,23,2022-05-04 15:57:03.882855,practice/neutre_2_flat.0459.eq.wav,0,3,224.80189054,-1.69663648,True,1.018
13,1,2,0,f,23,2022-05-04 15:57:03.882855,practice/neutre_2_flat.0459.eq.wav,0,4,362.97743001,0.67155242,True,1.018
13,1,2,0,f,23,2022-05-04 15:57:03.882855,practice/neutre_2_flat.0459.eq.wav,0,5,521.79790965,-0.07802158,True,1.018
13,1,2,0,f,23,2022-05-04 15:57:03.882855,practice/neutre_2_flat.0459.eq.wav,0,6,704.34790983,-0.16351659,True,1.018
13,1,2,0,f,23,2022-05-04 15:57:03.882855,practice/neutre_2_flat.0459.eq.wav,0,7,914.17288101,-0.41226902,True,1.018
13,1,2,0,f,23,2022-05-04 15:57:03.882855,practice/neutre_2_flat.0459.eq.wav,0,8,1155.34800284,-1.90308364,True,1.018
13,1,2,0,f,23,2022-05-04 15:57:03.882855,practice/neutre_2_flat.0459.eq.wav,0,9,1432.55733147,1.98849591,True,1.018
13,1,2,0,f,23,2022-05-04 15:57:03.882855,practice/neutre_2_flat.0459.eq.wav,0,10,1751.18477235,3.98839629,True,1.018
13,1,2,0,f,23,2022-05-04 15:57:03.882855,practice/neutre_2_flat.0459.eq.wav,0,11,2117.41864548,-2.69279623,True,1.018
13,1,2,0,f,23,2022-05-04 15:57:03.882855,practice/neutre_2_flat.0459.eq.wav,0,12,2538.37187364,-3.96630652,True,1.018
13,1,2,0,f,23,2022-05-04 15:57:03.882855,practice/neutre_2_flat.0459.eq.wav,0,13,3022.22012828,-1.3248167,True,1.018
13,1,2,0,f,23,2022-05-04 15:57:03.882855,practice/neutre_2_flat.0459.eq.wav,0,14,3578.36061576,4.16270416,True,1.018
13,1,2,0,f,23,2022-05-04 15:57:03.882855,practice/neutre_2_flat.0459.eq.wav,0,15,4217.59458808,1.67339456,True,1.018
13,1,2,0,f,23,2022-05-04 15:57:03.882855,practice/neutre_2_flat.0459.eq.wav,0,16,4952.33712269,-1.81580033,True,1.018
13,1,2,0,f,23,2022-05-04 15:57:03.882855,practice/neutre_2_flat.0459.eq.wav,0,17,5796.8582457,2.14078279,True,1.018
13,1,2,0,f,23,2022-05-04 15:57:03.882855,practice/neutre_2_flat.0459.eq.wav,0,18,6767.56008152,-1.16180055,True,1.018
13,1,2,0,f,23,2022-05-04 15:57:03.882855,practice/neutre_2_flat.0459.eq.wav,0,19,7883.29541175,0.97170657,True,1.018
13,1,2,0,f,23,2022-05-04 15:57:03.882855,practice/neutre_2_flat.0459.eq.wav,0,20,9165.73383021,0.20973719,True,1.018
13,1,2,0,f,23,2022-05-04 15:57:03.882855,practice/neutre_2_flat.0459.eq.wav,0,21,10639.78260555,2.69465757,True,1.018
13,1,2,0,f,23,2022-05-04 15:57:03.882855,practice/neutre_2_flat.0459.eq.wav,0,22,12334.07042541,0.22532938,True,1.018
13,1,2,0,f,23,2022-05-04 15:57:03.882855,practice/neutre_2_flat.0459.eq.wav,0,23,14281.50341712,-0.39806937,True,1.018
13,1,2,0,f,23,2022-05-04 15:57:03.882855,practice/neutre_2_flat.0459.eq.wav,0,24,16519.90424416,1.54189021,True,1.018
13,1,2,0,f,23,2022-05-04 15:57:03.882855,practice/neutre_2_flat.0459.eq.wav,0,25,19092.74669051,3.69367697,True,1.018
13,1,2,0,f,23,2022-05-04 15:57:03.882855,practice/neutre_2_flat.0459.eq.wav,0,26,22050.0,1.46362493,True,1.018
13,1,2,0,f,23,2022-05-04 15:57:03.882855,practice/neutre_2_flat.0763.eq.wav,1,1,0.0,0.6320278,False,1.018
13,1,2,0,f,23,2022-05-04 15:57:03.882855,practice/neutre_2_flat.0763.eq.wav,1,2,104.5876729,-1.12569623,False,1.018
13,1,2,0,f,23,2022-05-04 15:57:03.882855,practice/neutre_2_flat.0763.eq.wav,1,3,224.80189054,-1.71281689,False,1.018
13,1,2,0,f,23,2022-05-04 15:57:03.882855,practice/neutre_2_flat.0763.eq.wav,1,4,362.97743001,-0.50964777,False,1.018
13,1,2,0,f,23,2022-05-04 15:57:03.882855,practice/neutre_2_flat.0763.eq.wav,1,5,521.79790965,0.66118387,False,1.018
13,1,2,0,f,23,2022-05-04 15:57:03.882855,practice/neutre_2_flat.0763.eq.wav,1,6,704.34790983,-0.28312335,False,1.018
13,1,2,0,f,23,2022-05-04 15:57:03.882855,practice/neutre_2_flat.0763.eq.wav,1,7,914.17288101,-4.45391408,False,1.018
13,1,2,0,f,23,2022-05-04 15:57:03.882855,practice/neutre_2_flat.0763.eq.wav,1,8,1155.34800284,-2.69213379,False,1.018
13,1,2,0,f,23,2022-05-04 15:57:03.882855,practice/neutre_2_flat.0763.eq.wav,1,9,1432.55733147,-1.36074141,False,1.018
13,1,2,0,f,23,2022-05-04 15:57:03.882855,practice/neutre_2_flat.0763.eq.wav,1,10,1751.18477235,4.29920519,False,1.018
13,1,2,0,f,23,2022-05-04 15:57:03.882855,practice/neutre_2_flat.0763.eq.wav,1,11,2117.41864548,-4.4742677,False,1.018
13,1,2,0,f,23,2022-05-04 15:57:03.882855,practice/neutre_2_flat.0763.eq.wav,1,12,2538.37187364,2.47229996,False,1.018
13,1,2,0,f,23,2022-05-04 15:57:03.882855,practice/neutre_2_flat.0763.eq.wav,1,13,3022.22012828,2.45786932,False,1.018
13,1,2,0,f,23,2022-05-04 15:57:03.882855,practice/neutre_2_flat.0763.eq.wav,1,14,3578.36061576,3.0776591,False,1.018
13,1,2,0,f,23,2022-05-04 15:57:03.882855,practice/neutre_2_flat.0763.eq.wav,1,15,4217.59458808,-1.17934662,False,1.018
13,1,2,0,f,23,2022-05-04 15:57:03.882855,practice/neutre_2_flat.0763.eq.wav,1,16,4952.33712269,-4.72779497,False,1.018
13,1,2,0,f,23,2022-05-04 15:57:03.882855,practice/neutre_2_flat.0763.eq.wav,1,17,5796.8582457,-3.9528095,False,1.018
13,1,2,0,f,23,2022-05-04 15:57:03.882855,practice/neutre_2_flat.0763.eq.wav,1,18,6767.56008152,-4.47423645,False,1.018
13,1,2,0,f,23,2022-05-04 15:57:03.882855,practice/neutre_2_flat.0763.eq.wav,1,19,7883.29541175,-2.87018756,False,1.018
13,1,2,0,f,23,2022-05-04 15:57:03.882855,practice/neutre_2_flat.0763.eq.wav,1,20,9165.73383021,0.26986772,False,1.018
13,1,2,0,f,23,2022-05-04 15:57:03.882855,practice/neutre_2_flat.0763.eq.wav,1,21,10639.78260555,1.99904892,False,1.018
13,1,2,0,f,23,2022-05-04 15:57:03.882855,practice/neutre_2_flat.0763.eq.wav,1,22,12334.07042541,1.93905758,False,1.018
13,1,2,0,f,23,2022-05-04 15:57:03.882855,practice/neutre_2_flat.0763.eq.wav,1,23,14281.50341712,-0.33231949,False,1.018
13,1,2,0,f,23,2022-05-04 15:57:03.882855,practice/neutre_2_flat.0763.eq.wav,1,24,16519.90424416,2.50749056,False,1.018
13,1,2,0,f,23,2022-05-04 15:57:03.882855,practice/neutre_2_flat.0763.eq.wav,1,25,19092.74669051,-2.18435533,False,1.018
13,1,2,0,f,23,2022-05-04 15:57:03.882855,practice/neutre_2_flat.0763.eq.wav,1,26,22050.0,0.88642257,False,1.018
13,1,3,0,f,23,2022-05-04 15:57:03.882855,practice/M_n_cut_smile_controls.wav,0,0,100.0,-0.8413748087013819,False,0.696
13,1,3,0,f,23,2022-05-04 15:57:03.882855,practice/M_n_cut_smile_controls.wav,0,1,191.0,-0.508212207818517,False,0.696
13,1,3,0,f,23,2022-05-04 15:57:03.882855,practice/M_n_cut_smile_controls.wav,0,2,293.0,-0.7064540836890618,False,0.696
13,1,3,0,f,23,2022-05-04 15:57:03.882855,practice/M_n_cut_smile_controls.wav,0,3,406.0,-1.563085776129798,False,0.696
13,1,3,0,f,23,2022-05-04 15:57:03.882855,practice/M_n_cut_smile_controls.wav,0,4,533.0,-1.0042739144132906,False,0.696
13,1,3,0,f,23,2022-05-04 15:57:03.882855,practice/M_n_cut_smile_controls.wav,0,5,673.0,0.5503436455299164,False,0.696
13,1,3,0,f,23,2022-05-04 15:57:03.882855,practice/M_n_cut_smile_controls.wav,0,6,830.0,0.6355236363614536,False,0.696
13,1,3,0,f,23,2022-05-04 15:57:03.882855,practice/M_n_cut_smile_controls.wav,0,7,1004.0,0.18258331583897092,False,0.696
13,1,3,0,f,23,2022-05-04 15:57:03.882855,practice/M_n_cut_smile_controls.wav,0,8,1199.0,1.0775510715714662,False,0.696
13,1,3,0,f,23,2022-05-04 15:57:03.882855,practice/M_n_cut_smile_controls.wav,0,9,1416.0,0.07035631583735258,False,0.696
13,1,3,0,f,23,2022-05-04 15:57:03.882855,practice/M_n_cut_smile_controls.wav,0,10,1657.0,-0.17815117497723656,False,0.696
13,1,3,0,f,23,2022-05-04 15:57:03.882855,practice/M_n_cut_smile_controls.wav,0,11,1926.0,-0.1694125054827026,False,0.696
13,1,3,0,f,23,2022-05-04 15:57:03.882855,practice/M_n_cut_smile_controls.wav,0,12,2226.0,0.16378442502596796,False,0.696
13,1,3,0,f,23,2022-05-04 15:57:03.882855,practice/M_n_cut_smile_controls.wav,0,13,2560.0,0.34787304916463235,False,0.696
13,1,3,0,f,23,2022-05-04 15:57:03.882855,practice/M_n_cut_smile_controls.wav,0,14,2932.0,0.0626149612132311,False,0.696
13,1,3,0,f,23,2022-05-04 15:57:03.882855,practice/M_n_cut_smile_controls.wav,0,15,3346.0,0.2996597360864252,False,0.696
13,1,3,0,f,23,2022-05-04 15:57:03.882855,practice/M_n_cut_smile_controls.wav,0,16,3808.0,0.42937102971314384,False,0.696
13,1,3,0,f,23,2022-05-04 15:57:03.882855,practice/M_n_cut_smile_controls.wav,0,17,4322.0,-0.41737623835229487,False,0.696
13,1,3,0,f,23,2022-05-04 15:57:03.882855,practice/M_n_cut_smile_controls.wav,0,18,4895.0,0.059966459920471,False,0.696
13,1,3,0,f,23,2022-05-04 15:57:03.882855,practice/M_n_cut_smile_controls.wav,0,19,5534.0,0.27708525932290595,False,0.696
13,1,3,0,f,23,2022-05-04 15:57:03.882855,practice/M_n_cut_smile_controls.wav,0,20,6245.0,0.17960724922351168,False,0.696
13,1,3,0,f,23,2022-05-04 15:57:03.882855,practice/M_n_cut_smile_controls.wav,0,21,7037.0,0.1292321690281848,False,0.696
13,1,3,0,f,23,2022-05-04 15:57:03.882855,practice/M_n_cut_smile_controls.wav,0,22,7920.0,0.0646792137345456,False,0.696
13,1,3,0,f,23,2022-05-04 15:57:03.882855,practice/M_n_cut_smile_controls.wav,0,23,8904.0,0.35333251063145654,False,0.696
13,1,3,0,f,23,2022-05-04 15:57:03.882855,practice/M_n_cut_smile_controls.wav,0,24,10000.0,0.5238291016113881,False,0.696
13,1,3,0,f,23,2022-05-04 15:57:03.882855,practice/M_n_cut_antismile_tours.wav,1,0,100.0,0.32790130543443463,True,0.696
13,1,3,0,f,23,2022-05-04 15:57:03.882855,practice/M_n_cut_antismile_tours.wav,1,1,191.0,0.8071364324035921,True,0.696
13,1,3,0,f,23,2022-05-04 15:57:03.882855,practice/M_n_cut_antismile_tours.wav,1,2,293.0,0.582123610043553,True,0.696
13,1,3,0,f,23,2022-05-04 15:57:03.882855,practice/M_n_cut_antismile_tours.wav,1,3,406.0,1.0140082293210155,True,0.696
13,1,3,0,f,23,2022-05-04 15:57:03.882855,practice/M_n_cut_antismile_tours.wav,1,4,533.0,1.5602554184356976,True,0.696
13,1,3,0,f,23,2022-05-04 15:57:03.882855,practice/M_n_cut_antismile_tours.wav,1,5,673.0,0.023188630015347246,True,0.696
13,1,3,0,f,23,2022-05-04 15:57:03.882855,practice/M_n_cut_antismile_tours.wav,1,6,830.0,-0.6101534486353236,True,0.696
13,1,3,0,f,23,2022-05-04 15:57:03.882855,practice/M_n_cut_antismile_tours.wav,1,7,1004.0,-0.3548441596986841,True,0.696
13,1,3,0,f,23,2022-05-04 15:57:03.882855,practice/M_n_cut_antismile_tours.wav,1,8,1199.0,-0.30599388164314356,True,0.696
13,1,3,0,f,23,2022-05-04 15:57:03.882855,practice/M_n_cut_antismile_tours.wav,1,9,1416.0,0.21693787511408644,True,0.696
13,1,3,0,f,23,2022-05-04 15:57:03.882855,practice/M_n_cut_antismile_tours.wav,1,10,1657.0,-0.2097701057829011,True,0.696
13,1,3,0,f,23,2022-05-04 15:57:03.882855,practice/M_n_cut_antismile_tours.wav,1,11,1926.0,0.4803248463849489,True,0.696
13,1,3,0,f,23,2022-05-04 15:57:03.882855,practice/M_n_cut_antismile_tours.wav,1,12,2226.0,0.05824586400483771,True,0.696
13,1,3,0,f,23,2022-05-04 15:57:03.882855,practice/M_n_cut_antismile_tours.wav,1,13,2560.0,-0.07967691123039847,True,0.696
13,1,3,0,f,23,2022-05-04 15:57:03.882855,practice/M_n_cut_antismile_tours.wav,1,14,2932.0,-0.3977737983665839,True,0.696
13,1,3,0,f,23,2022-05-04 15:57:03.882855,practice/M_n_cut_antismile_tours.wav,1,15,3346.0,-0.0627928749462618,True,0.696
13,1,3,0,f,23,2022-05-04 15:57:03.882855,practice/M_n_cut_antismile_tours.wav,1,16,3808.0,-0.3051876635285592,True,0.696
13,1,3,0,f,23,2022-05-04 15:57:03.882855,practice/M_n_cut_antismile_tours.wav,1,17,4322.0,0.02410972791995148,True,0.696
13,1,3,0,f,23,2022-05-04 15:57:03.882855,practice/M_n_cut_antismile_tours.wav,1,18,4895.0,0.20234496801960317,True,0.696
13,1,3,0,f,23,2022-05-04 15:57:03.882855,practice/M_n_cut_antismile_tours.wav,1,19,5534.0,-0.10243873713564498,True,0.696
13,1,3,0,f,23,2022-05-04 15:57:03.882855,practice/M_n_cut_antismile_tours.wav,1,20,6245.0,-0.37082597171598497,True,0.696
13,1,3,0,f,23,2022-05-04 15:57:03.882855,practice/M_n_cut_antismile_tours.wav,1,21,7037.0,-0.21039849166199884,True,0.696
13,1,3,0,f,23,2022-05-04 15:57:03.882855,practice/M_n_cut_antismile_tours.wav,1,22,7920.0,-0.39193232679853557,True,0.696
13,1,3,0,f,23,2022-05-04 15:57:03.882855,practice/M_n_cut_antismile_tours.wav,1,23,8904.0,-0.2124659709374833,True,0.696
13,1,3,0,f,23,2022-05-04 15:57:03.882855,practice/M_n_cut_antismile_tours.wav,1,24,10000.0,0.27890288211783215,True,0.696
13,1,4,0,f,23,2022-05-04 15:57:03.882855,practice/neutre_2_flat.0010.eq.wav,0,1,0.0,3.12287617,True,0.902
13,1,4,0,f,23,2022-05-04 15:57:03.882855,practice/neutre_2_flat.0010.eq.wav,0,2,104.5876729,-2.2536421,True,0.902
13,1,4,0,f,23,2022-05-04 15:57:03.882855,practice/neutre_2_flat.0010.eq.wav,0,3,224.80189054,4.99208692,True,0.902
13,1,4,0,f,23,2022-05-04 15:57:03.882855,practice/neutre_2_flat.0010.eq.wav,0,4,362.97743001,-1.90843879,True,0.902
13,1,4,0,f,23,2022-05-04 15:57:03.882855,practice/neutre_2_flat.0010.eq.wav,0,5,521.79790965,3.37354325,True,0.902
13,1,4,0,f,23,2022-05-04 15:57:03.882855,practice/neutre_2_flat.0010.eq.wav,0,6,704.34790983,-0.36474085,True,0.902
13,1,4,0,f,23,2022-05-04 15:57:03.882855,practice/neutre_2_flat.0010.eq.wav,0,7,914.17288101,-2.05486324,True,0.902
13,1,4,0,f,23,2022-05-04 15:57:03.882855,practice/neutre_2_flat.0010.eq.wav,0,8,1155.34800284,0.06066999,True,0.902
13,1,4,0,f,23,2022-05-04 15:57:03.882855,practice/neutre_2_flat.0010.eq.wav,0,9,1432.55733147,-4.74519689,True,0.902
13,1,4,0,f,23,2022-05-04 15:57:03.882855,practice/neutre_2_flat.0010.eq.wav,0,10,1751.18477235,-0.97630357,True,0.902
13,1,4,0,f,23,2022-05-04 15:57:03.882855,practice/neutre_2_flat.0010.eq.wav,0,11,2117.41864548,4.30028165,True,0.902
13,1,4,0,f,23,2022-05-04 15:57:03.882855,practice/neutre_2_flat.0010.eq.wav,0,12,2538.37187364,-3.93010839,True,0.902
13,1,4,0,f,23,2022-05-04 15:57:03.882855,practice/neutre_2_flat.0010.eq.wav,0,13,3022.22012828,2.74794884,True,0.902
13,1,4,0,f,23,2022-05-04 15:57:03.882855,practice/neutre_2_flat.0010.eq.wav,0,14,3578.36061576,0.87391297,True,0.902
13,1,4,0,f,23,2022-05-04 15:57:03.882855,practice/neutre_2_flat.0010.eq.wav,0,15,4217.59458808,2.82191137,True,0.902
13,1,4,0,f,23,2022-05-04 15:57:03.882855,practice/neutre_2_flat.0010.eq.wav,0,16,4952.33712269,2.3484316,True,0.902
13,1,4,0,f,23,2022-05-04 15:57:03.882855,practice/neutre_2_flat.0010.eq.wav,0,17,5796.8582457,3.80195816,True,0.902
13,1,4,0,f,23,2022-05-04 15:57:03.882855,practice/neutre_2_flat.0010.eq.wav,0,18,6767.56008152,1.76034261,True,0.902
13,1,4,0,f,23,2022-05-04 15:57:03.882855,practice/neutre_2_flat.0010.eq.wav,0,19,7883.29541175,0.8729359,True,0.902
13,1,4,0,f,23,2022-05-04 15:57:03.882855,practice/neutre_2_flat.0010.eq.wav,0,20,9165.73383021,-1.75047265,True,0.902
13,1,4,0,f,23,2022-05-04 15:57:03.882855,practice/neutre_2_flat.0010.eq.wav,0,21,10639.78260555,4.19283789,True,0.902
13,1,4,0,f,23,2022-05-04 15:57:03.882855,practice/neutre_2_flat.0010.eq.wav,0,22,12334.07042541,3.50588892,True,0.902
13,1,4,0,f,23,2022-05-04 15:57:03.882855,practice/neutre_2_flat.0010.eq.wav,0,23,14281.50341712,-4.30994919,True,0.902
13,1,4,0,f,23,2022-05-04 15:57:03.882855,practice/neutre_2_flat.0010.eq.wav,0,24,16519.90424416,1.37087774,True,0.902
13,1,4,0,f,23,2022-05-04 15:57:03.882855,practice/neutre_2_flat.0010.eq.wav,0,25,19092.74669051,0.04903211,True,0.902
13,1,4,0,f,23,2022-05-04 15:57:03.882855,practice/neutre_2_flat.0010.eq.wav,0,26,22050.0,0.85134985,True,0.902
13,1,4,0,f,23,2022-05-04 15:57:03.882855,practice/neutre_2_flat.0872.eq.wav,1,1,0.0,3.50702925,False,0.902
13,1,4,0,f,23,2022-05-04 15:57:03.882855,practice/neutre_2_flat.0872.eq.wav,1,2,104.5876729,-0.61317831,False,0.902
13,1,4,0,f,23,2022-05-04 15:57:03.882855,practice/neutre_2_flat.0872.eq.wav,1,3,224.80189054,3.82395969,False,0.902
13,1,4,0,f,23,2022-05-04 15:57:03.882855,practice/neutre_2_flat.0872.eq.wav,1,4,362.97743001,1.52284081,False,0.902
13,1,4,0,f,23,2022-05-04 15:57:03.882855,practice/neutre_2_flat.0872.eq.wav,1,5,521.79790965,-4.45755761,False,0.902
13,1,4,0,f,23,2022-05-04 15:57:03.882855,practice/neutre_2_flat.0872.eq.wav,1,6,704.34790983,3.590636,False,0.902
13,1,4,0,f,23,2022-05-04 15:57:03.882855,practice/neutre_2_flat.0872.eq.wav,1,7,914.17288101,4.34245404,False,0.902
13,1,4,0,f,23,2022-05-04 15:57:03.882855,practice/neutre_2_flat.0872.eq.wav,1,8,1155.34800284,-3.19324126,False,0.902
13,1,4,0,f,23,2022-05-04 15:57:03.882855,practice/neutre_2_flat.0872.eq.wav,1,9,1432.55733147,0.1991481,False,0.902
13,1,4,0,f,23,2022-05-04 15:57:03.882855,practice/neutre_2_flat.0872.eq.wav,1,10,1751.18477235,-0.47335486,False,0.902
13,1,4,0,f,23,2022-05-04 15:57:03.882855,practice/neutre_2_flat.0872.eq.wav,1,11,2117.41864548,0.71746844,False,0.902
13,1,4,0,f,23,2022-05-04 15:57:03.882855,practice/neutre_2_flat.0872.eq.wav,1,12,2538.37187364,1.69273777,False,0.902
13,1,4,0,f,23,2022-05-04 15:57:03.882855,practice/neutre_2_flat.0872.eq.wav,1,13,3022.22012828,1.57080753,False,0.902
13,1,4,0,f,23,2022-05-04 15:57:03.882855,practice/neutre_2_flat.0872.eq.wav,1,14,3578.36061576,-0.62877846,False,0.902
13,1,4,0,f,23,2022-05-04 15:57:03.882855,practice/neutre_2_flat.0872.eq.wav,1,15,4217.59458808,0.43246009,False,0.902
13,1,4,0,f,23,2022-05-04 15:57:03.882855,practice/neutre_2_flat.0872.eq.wav,1,16,4952.33712269,-3.10028124,False,0.902
13,1,4,0,f,23,2022-05-04 15:57:03.882855,practice/neutre_2_flat.0872.eq.wav,1,17,5796.8582457,-0.90696076,False,0.902
13,1,4,0,f,23,2022-05-04 15:57:03.882855,practice/neutre_2_flat.0872.eq.wav,1,18,6767.56008152,-4.72648989,False,0.902
13,1,4,0,f,23,2022-05-04 15:57:03.882855,practice/neutre_2_flat.0872.eq.wav,1,19,7883.29541175,-3.22496712,False,0.902
13,1,4,0,f,23,2022-05-04 15:57:03.882855,practice/neutre_2_flat.0872.eq.wav,1,20,9165.73383021,1.32311729,False,0.902
13,1,4,0,f,23,2022-05-04 15:57:03.882855,practice/neutre_2_flat.0872.eq.wav,1,21,10639.78260555,3.09319411,False,0.902
13,1,4,0,f,23,2022-05-04 15:57:03.882855,practice/neutre_2_flat.0872.eq.wav,1,22,12334.07042541,4.49244338,False,0.902
13,1,4,0,f,23,2022-05-04 15:57:03.882855,practice/neutre_2_flat.0872.eq.wav,1,23,14281.50341712,-3.68498642,False,0.902
13,1,4,0,f,23,2022-05-04 15:57:03.882855,practice/neutre_2_flat.0872.eq.wav,1,24,16519.90424416,-1.95684209,False,0.902
13,1,4,0,f,23,2022-05-04 15:57:03.882855,practice/neutre_2_flat.0872.eq.wav,1,25,19092.74669051,2.43420706,False,0.902
13,1,4,0,f,23,2022-05-04 15:57:03.882855,practice/neutre_2_flat.0872.eq.wav,1,26,22050.0,4.3591722,False,0.902
13,1,5,0,f,23,2022-05-04 15:57:03.882855,practice/M_n_cut_antismile_tours.wav,0,0,100.0,0.32790130543443463,False,1.136
13,1,5,0,f,23,2022-05-04 15:57:03.882855,practice/M_n_cut_antismile_tours.wav,0,1,191.0,0.8071364324035921,False,1.136
13,1,5,0,f,23,2022-05-04 15:57:03.882855,practice/M_n_cut_antismile_tours.wav,0,2,293.0,0.582123610043553,False,1.136
13,1,5,0,f,23,2022-05-04 15:57:03.882855,practice/M_n_cut_antismile_tours.wav,0,3,406.0,1.0140082293210155,False,1.136
13,1,5,0,f,23,2022-05-04 15:57:03.882855,practice/M_n_cut_antismile_tours.wav,0,4,533.0,1.5602554184356976,False,1.136
13,1,5,0,f,23,2022-05-04 15:57:03.882855,practice/M_n_cut_antismile_tours.wav,0,5,673.0,0.023188630015347246,False,1.136
13,1,5,0,f,23,2022-05-04 15:57:03.882855,practice/M_n_cut_antismile_tours.wav,0,6,830.0,-0.6101534486353236,False,1.136
13,1,5,0,f,23,2022-05-04 15:57:03.882855,practice/M_n_cut_antismile_tours.wav,0,7,1004.0,-0.3548441596986841,False,1.136
13,1,5,0,f,23,2022-05-04 15:57:03.882855,practice/M_n_cut_antismile_tours.wav,0,8,1199.0,-0.30599388164314356,False,1.136
13,1,5,0,f,23,2022-05-04 15:57:03.882855,practice/M_n_cut_antismile_tours.wav,0,9,1416.0,0.21693787511408644,False,1.136
13,1,5,0,f,23,2022-05-04 15:57:03.882855,practice/M_n_cut_antismile_tours.wav,0,10,1657.0,-0.2097701057829011,False,1.136
13,1,5,0,f,23,2022-05-04 15:57:03.882855,practice/M_n_cut_antismile_tours.wav,0,11,1926.0,0.4803248463849489,False,1.136
13,1,5,0,f,23,2022-05-04 15:57:03.882855,practice/M_n_cut_antismile_tours.wav,0,12,2226.0,0.05824586400483771,False,1.136
13,1,5,0,f,23,2022-05-04 15:57:03.882855,practice/M_n_cut_antismile_tours.wav,0,13,2560.0,-0.07967691123039847,False,1.136
13,1,5,0,f,23,2022-05-04 15:57:03.882855,practice/M_n_cut_antismile_tours.wav,0,14,2932.0,-0.3977737983665839,False,1.136
13,1,5,0,f,23,2022-05-04 15:57:03.882855,practice/M_n_cut_antismile_tours.wav,0,15,3346.0,-0.0627928749462618,False,1.136
13,1,5,0,f,23,2022-05-04 15:57:03.882855,practice/M_n_cut_antismile_tours.wav,0,16,3808.0,-0.3051876635285592,False,1.136
13,1,5,0,f,23,2022-05-04 15:57:03.882855,practice/M_n_cut_antismile_tours.wav,0,17,4322.0,0.02410972791995148,False,1.136
13,1,5,0,f,23,2022-05-04 15:57:03.882855,practice/M_n_cut_antismile_tours.wav,0,18,4895.0,0.20234496801960317,False,1.136
13,1,5,0,f,23,2022-05-04 15:57:03.882855,practice/M_n_cut_antismile_tours.wav,0,19,5534.0,-0.10243873713564498,False,1.136
13,1,5,0,f,23,2022-05-04 15:57:03.882855,practice/M_n_cut_antismile_tours.wav,0,20,6245.0,-0.37082597171598497,False,1.136
13,1,5,0,f,23,2022-05-04 15:57:03.882855,practice/M_n_cut_antismile_tours.wav,0,21,7037.0,-0.21039849166199884,False,1.136
13,1,5,0,f,23,2022-05-04 15:57:03.882855,practice/M_n_cut_antismile_tours.wav,0,22,7920.0,-0.39193232679853557,False,1.136
13,1,5,0,f,23,2022-05-04 15:57:03.882855,practice/M_n_cut_antismile_tours.wav,0,23,8904.0,-0.2124659709374833,False,1.136
13,1,5,0,f,23,2022-05-04 15:57:03.882855,practice/M_n_cut_antismile_tours.wav,0,24,10000.0,0.27890288211783215,False,1.136
13,1,5,0,f,23,2022-05-04 15:57:03.882855,practice/M_n_cut_smile_controls.wav,1,0,100.0,-0.8413748087013819,True,1.136
13,1,5,0,f,23,2022-05-04 15:57:03.882855,practice/M_n_cut_smile_controls.wav,1,1,191.0,-0.508212207818517,True,1.136
13,1,5,0,f,23,2022-05-04 15:57:03.882855,practice/M_n_cut_smile_controls.wav,1,2,293.0,-0.7064540836890618,True,1.136
13,1,5,0,f,23,2022-05-04 15:57:03.882855,practice/M_n_cut_smile_controls.wav,1,3,406.0,-1.563085776129798,True,1.136
13,1,5,0,f,23,2022-05-04 15:57:03.882855,practice/M_n_cut_smile_controls.wav,1,4,533.0,-1.0042739144132906,True,1.136
13,1,5,0,f,23,2022-05-04 15:57:03.882855,practice/M_n_cut_smile_controls.wav,1,5,673.0,0.5503436455299164,True,1.136
13,1,5,0,f,23,2022-05-04 15:57:03.882855,practice/M_n_cut_smile_controls.wav,1,6,830.0,0.6355236363614536,True,1.136
13,1,5,0,f,23,2022-05-04 15:57:03.882855,practice/M_n_cut_smile_controls.wav,1,7,1004.0,0.18258331583897092,True,1.136
13,1,5,0,f,23,2022-05-04 15:57:03.882855,practice/M_n_cut_smile_controls.wav,1,8,1199.0,1.0775510715714662,True,1.136
13,1,5,0,f,23,2022-05-04 15:57:03.882855,practice/M_n_cut_smile_controls.wav,1,9,1416.0,0.07035631583735258,True,1.136
13,1,5,0,f,23,2022-05-04 15:57:03.882855,practice/M_n_cut_smile_controls.wav,1,10,1657.0,-0.17815117497723656,True,1.136
13,1,5,0,f,23,2022-05-04 15:57:03.882855,practice/M_n_cut_smile_controls.wav,1,11,1926.0,-0.1694125054827026,True,1.136
13,1,5,0,f,23,2022-05-04 15:57:03.882855,practice/M_n_cut_smile_controls.wav,1,12,2226.0,0.16378442502596796,True,1.136
13,1,5,0,f,23,2022-05-04 15:57:03.882855,practice/M_n_cut_smile_controls.wav,1,13,2560.0,0.34787304916463235,True,1.136
13,1,5,0,f,23,2022-05-04 15:57:03.882855,practice/M_n_cut_smile_controls.wav,1,14,2932.0,0.0626149612132311,True,1.136
13,1,5,0,f,23,2022-05-04 15:57:03.882855,practice/M_n_cut_smile_controls.wav,1,15,3346.0,0.2996597360864252,True,1.136
13,1,5,0,f,23,2022-05-04 15:57:03.882855,practice/M_n_cut_smile_controls.wav,1,16,3808.0,0.42937102971314384,True,1.136
13,1,5,0,f,23,2022-05-04 15:57:03.882855,practice/M_n_cut_smile_controls.wav,1,17,4322.0,-0.41737623835229487,True,1.136
13,1,5,0,f,23,2022-05-04 15:57:03.882855,practice/M_n_cut_smile_controls.wav,1,18,4895.0,0.059966459920471,True,1.136
13,1,5,0,f,23,2022-05-04 15:57:03.882855,practice/M_n_cut_smile_controls.wav,1,19,5534.0,0.27708525932290595,True,1.136
13,1,5,0,f,23,2022-05-04 15:57:03.882855,practice/M_n_cut_smile_controls.wav,1,20,6245.0,0.17960724922351168,True,1.136
13,1,5,0,f,23,2022-05-04 15:57:03.882855,practice/M_n_cut_smile_controls.wav,1,21,7037.0,0.1292321690281848,True,1.136
13,1,5,0,f,23,2022-05-04 15:57:03.882855,practice/M_n_cut_smile_controls.wav,1,22,7920.0,0.0646792137345456,True,1.136
13,1,5,0,f,23,2022-05-04 15:57:03.882855,practice/M_n_cut_smile_controls.wav,1,23,8904.0,0.35333251063145654,True,1.136
13,1,5,0,f,23,2022-05-04 15:57:03.882855,practice/M_n_cut_smile_controls.wav,1,24,10000.0,0.5238291016113881,True,1.136
13,1,6,1,f,23,2022-05-04 15:57:03.882855,neutre_2_flat.0001.eq.wav,0,1,0.0,-4.81070833,True,0.634
13,1,6,1,f,23,2022-05-04 15:57:03.882855,neutre_2_flat.0001.eq.wav,0,2,104.5876729,-1.75950014,True,0.634
13,1,6,1,f,23,2022-05-04 15:57:03.882855,neutre_2_flat.0001.eq.wav,0,3,224.80189054,0.25502266,True,0.634
13,1,6,1,f,23,2022-05-04 15:57:03.882855,neutre_2_flat.0001.eq.wav,0,4,362.97743001,-3.68891562,True,0.634
13,1,6,1,f,23,2022-05-04 15:57:03.882855,neutre_2_flat.0001.eq.wav,0,5,521.79790965,4.39546684,True,0.634
13,1,6,1,f,23,2022-05-04 15:57:03.882855,neutre_2_flat.0001.eq.wav,0,6,704.34790983,4.15477141,True,0.634
13,1,6,1,f,23,2022-05-04 15:57:03.882855,neutre_2_flat.0001.eq.wav,0,7,914.17288101,-0.11649347,True,0.634
13,1,6,1,f,23,2022-05-04 15:57:03.882855,neutre_2_flat.0001.eq.wav,0,8,1155.34800284,2.77576615,True,0.634
13,1,6,1,f,23,2022-05-04 15:57:03.882855,neutre_2_flat.0001.eq.wav,0,9,1432.55733147,2.61043775,True,0.634
13,1,6,1,f,23,2022-05-04 15:57:03.882855,neutre_2_flat.0001.eq.wav,0,10,1751.18477235,4.39223734,True,0.634
13,1,6,1,f,23,2022-05-04 15:57:03.882855,neutre_2_flat.0001.eq.wav,0,11,2117.41864548,0.61259215,True,0.634
13,1,6,1,f,23,2022-05-04 15:57:03.882855,neutre_2_flat.0001.eq.wav,0,12,2538.37187364,0.50520247,True,0.634
13,1,6,1,f,23,2022-05-04 15:57:03.882855,neutre_2_flat.0001.eq.wav,0,13,3022.22012828,0.38289898,True,0.634
13,1,6,1,f,23,2022-05-04 15:57:03.882855,neutre_2_flat.0001.eq.wav,0,14,3578.36061576,2.59588063,True,0.634
13,1,6,1,f,23,2022-05-04 15:57:03.882855,neutre_2_flat.0001.eq.wav,0,15,4217.59458808,0.48492811,True,0.634
13,1,6,1,f,23,2022-05-04 15:57:03.882855,neutre_2_flat.0001.eq.wav,0,16,4952.33712269,2.62803162,True,0.634
13,1,6,1,f,23,2022-05-04 15:57:03.882855,neutre_2_flat.0001.eq.wav,0,17,5796.8582457,-3.80048407,True,0.634
13,1,6,1,f,23,2022-05-04 15:57:03.882855,neutre_2_flat.0001.eq.wav,0,18,6767.56008152,4.41591808,True,0.634
13,1,6,1,f,23,2022-05-04 15:57:03.882855,neutre_2_flat.0001.eq.wav,0,19,7883.29541175,1.00383093,True,0.634
13,1,6,1,f,23,2022-05-04 15:57:03.882855,neutre_2_flat.0001.eq.wav,0,20,9165.73383021,4.84164264,True,0.634
13,1,6,1,f,23,2022-05-04 15:57:03.882855,neutre_2_flat.0001.eq.wav,0,21,10639.78260555,-2.5034557,True,0.634
13,1,6,1,f,23,2022-05-04 15:57:03.882855,neutre_2_flat.0001.eq.wav,0,22,12334.07042541,0.69618397,True,0.634
13,1,6,1,f,23,2022-05-04 15:57:03.882855,neutre_2_flat.0001.eq.wav,0,23,14281.50341712,2.74785837,True,0.634
13,1,6,1,f,23,2022-05-04 15:57:03.882855,neutre_2_flat.0001.eq.wav,0,24,16519.90424416,-1.73815805,True,0.634
13,1,6,1,f,23,2022-05-04 15:57:03.882855,neutre_2_flat.0001.eq.wav,0,25,19092.74669051,3.10166483,True,0.634
13,1,6,1,f,23,2022-05-04 15:57:03.882855,neutre_2_flat.0001.eq.wav,0,26,22050.0,-0.79356108,True,0.634
13,1,6,1,f,23,2022-05-04 15:57:03.882855,neutre_2_flat.0501.eq.wav,1,1,0.0,-1.26284923,False,0.634
13,1,6,1,f,23,2022-05-04 15:57:03.882855,neutre_2_flat.0501.eq.wav,1,2,104.5876729,3.91476078,False,0.634
13,1,6,1,f,23,2022-05-04 15:57:03.882855,neutre_2_flat.0501.eq.wav,1,3,224.80189054,-4.0394575,False,0.634
13,1,6,1,f,23,2022-05-04 15:57:03.882855,neutre_2_flat.0501.eq.wav,1,4,362.97743001,-4.37632664,False,0.634
13,1,6,1,f,23,2022-05-04 15:57:03.882855,neutre_2_flat.0501.eq.wav,1,5,521.79790965,-0.5448222,False,0.634
13,1,6,1,f,23,2022-05-04 15:57:03.882855,neutre_2_flat.0501.eq.wav,1,6,704.34790983,0.24108054,False,0.634
13,1,6,1,f,23,2022-05-04 15:57:03.882855,neutre_2_flat.0501.eq.wav,1,7,914.17288101,-2.47612058,False,0.634
13,1,6,1,f,23,2022-05-04 15:57:03.882855,neutre_2_flat.0501.eq.wav,1,8,1155.34800284,-3.59099835,False,0.634
13,1,6,1,f,23,2022-05-04 15:57:03.882855,neutre_2_flat.0501.eq.wav,1,9,1432.55733147,0.82803811,False,0.634
13,1,6,1,f,23,2022-05-04 15:57:03.882855,neutre_2_flat.0501.eq.wav,1,10,1751.18477235,0.18140895,False,0.634
13,1,6,1,f,23,2022-05-04 15:57:03.882855,neutre_2_flat.0501.eq.wav,1,11,2117.41864548,2.27894706,False,0.634
13,1,6,1,f,23,2022-05-04 15:57:03.882855,neutre_2_flat.0501.eq.wav,1,12,2538.37187364,4.7328666,False,0.634
13,1,6,1,f,23,2022-05-04 15:57:03.882855,neutre_2_flat.0501.eq.wav,1,13,3022.22012828,2.36715675,False,0.634
13,1,6,1,f,23,2022-05-04 15:57:03.882855,neutre_2_flat.0501.eq.wav,1,14,3578.36061576,4.16354864,False,0.634
13,1,6,1,f,23,2022-05-04 15:57:03.882855,neutre_2_flat.0501.eq.wav,1,15,4217.59458808,-2.91041431,False,0.634
13,1,6,1,f,23,2022-05-04 15:57:03.882855,neutre_2_flat.0501.eq.wav,1,16,4952.33712269,0.41663488,False,0.634
13,1,6,1,f,23,2022-05-04 15:57:03.882855,neutre_2_flat.0501.eq.wav,1,17,5796.8582457,-1.48223608,False,0.634
13,1,6,1,f,23,2022-05-04 15:57:03.882855,neutre_2_flat.0501.eq.wav,1,18,6767.56008152,-1.58336625,False,0.634
13,1,6,1,f,23,2022-05-04 15:57:03.882855,neutre_2_flat.0501.eq.wav,1,19,7883.29541175,-3.73250786,False,0.634
13,1,6,1,f,23,2022-05-04 15:57:03.882855,neutre_2_flat.0501.eq.wav,1,20,9165.73383021,1.68104651,False,0.634
13,1,6,1,f,23,2022-05-04 15:57:03.882855,neutre_2_flat.0501.eq.wav,1,21,10639.78260555,2.46365479,False,0.634
13,1,6,1,f,23,2022-05-04 15:57:03.882855,neutre_2_flat.0501.eq.wav,1,22,12334.07042541,-3.31378886,False,0.634
13,1,6,1,f,23,2022-05-04 15:57:03.882855,neutre_2_flat.0501.eq.wav,1,23,14281.50341712,0.35251162,False,0.634
13,1,6,1,f,23,2022-05-04 15:57:03.882855,neutre_2_flat.0501.eq.wav,1,24,16519.90424416,-4.11677386,False,0.634
13,1,6,1,f,23,2022-05-04 15:57:03.882855,neutre_2_flat.0501.eq.wav,1,25,19092.74669051,-0.67202668,False,0.634
13,1,6,1,f,23,2022-05-04 15:57:03.882855,neutre_2_flat.0501.eq.wav,1,26,22050.0,-0.18588005,False,0.634
13,1,7,1,f,23,2022-05-04 15:57:03.882855,neutre_2_flat.0002.eq.wav,0,1,0.0,1.27097074,False,0.479
13,1,7,1,f,23,2022-05-04 15:57:03.882855,neutre_2_flat.0002.eq.wav,0,2,104.5876729,-1.27327821,False,0.479
13,1,7,1,f,23,2022-05-04 15:57:03.882855,neutre_2_flat.0002.eq.wav,0,3,224.80189054,-2.65148091,False,0.479
13,1,7,1,f,23,2022-05-04 15:57:03.882855,neutre_2_flat.0002.eq.wav,0,4,362.97743001,-1.9617331,False,0.479
13,1,7,1,f,23,2022-05-04 15:57:03.882855,neutre_2_flat.0002.eq.wav,0,5,521.79790965,1.4983757,False,0.479
13,1,7,1,f,23,2022-05-04 15:57:03.882855,neutre_2_flat.0002.eq.wav,0,6,704.34790983,4.30180339,False,0.479
13,1,7,1,f,23,2022-05-04 15:57:03.882855,neutre_2_flat.0002.eq.wav,0,7,914.17288101,-2.91378144,False,0.479
13,1,7,1,f,23,2022-05-04 15:57:03.882855,neutre_2_flat.0002.eq.wav,0,8,1155.34800284,3.92511685,False,0.479
13,1,7,1,f,23,2022-05-04 15:57:03.882855,neutre_2_flat.0002.eq.wav,0,9,1432.55733147,1.78540075,False,0.479
13,1,7,1,f,23,2022-05-04 15:57:03.882855,neutre_2_flat.0002.eq.wav,0,10,1751.18477235,-2.69715452,False,0.479
13,1,7,1,f,23,2022-05-04 15:57:03.882855,neutre_2_flat.0002.eq.wav,0,11,2117.41864548,-3.45606819,False,0.479
13,1,7,1,f,23,2022-05-04 15:57:03.882855,neutre_2_flat.0002.eq.wav,0,12,2538.37187364,-3.43103082,False,0.479
13,1,7,1,f,23,2022-05-04 15:57:03.882855,neutre_2_flat.0002.eq.wav,0,13,3022.22012828,-2.43578616,False,0.479
13,1,7,1,f,23,2022-05-04 15:57:03.882855,neutre_2_flat.0002.eq.wav,0,14,3578.36061576,1.66221885,False,0.479
13,1,7,1,f,23,2022-05-04 15:57:03.882855,neutre_2_flat.0002.eq.wav,0,15,4217.59458808,1.6649911,False,0.479
13,1,7,1,f,23,2022-05-04 15:57:03.882855,neutre_2_flat.0002.eq.wav,0,16,4952.33712269,-4.63405494,False,0.479
13,1,7,1,f,23,2022-05-04 15:57:03.882855,neutre_2_flat.0002.eq.wav,0,17,5796.8582457,0.31139956,False,0.479
13,1,7,1,f,23,2022-05-04 15:57:03.882855,neutre_2_flat.0002.eq.wav,0,18,6767.56008152,-0.32145205,False,0.479
13,1,7,1,f,23,2022-05-04 15:57:03.882855,neutre_2_flat.0002.eq.wav,0,19,7883.29541175,-3.15335268,False,0.479
13,1,7,1,f,23,2022-05-04 15:57:03.882855,neutre_2_flat.0002.eq.wav,0,20,9165.73383021,0.48580983,False,0.479
13,1,7,1,f,23,2022-05-04 15:57:03.882855,neutre_2_flat.0002.eq.wav,0,21,10639.78260555,3.9608204,False,0.479
13,1,7,1,f,23,2022-05-04 15:57:03.882855,neutre_2_flat.0002.eq.wav,0,22,12334.07042541,4.55921212,False,0.479
13,1,7,1,f,23,2022-05-04 15:57:03.882855,neutre_2_flat.0002.eq.wav,0,23,14281.50341712,-2.41033334,False,0.479
13,1,7,1,f,23,2022-05-04 15:57:03.882855,neutre_2_flat.0002.eq.wav,0,24,16519.90424416,0.1408943,False,0.479
13,1,7,1,f,23,2022-05-04 15:57:03.882855,neutre_2_flat.0002.eq.wav,0,25,19092.74669051,-1.45061229,False,0.479
13,1,7,1,f,23,2022-05-04 15:57:03.882855,neutre_2_flat.0002.eq.wav,0,26,22050.0,-1.18614926,False,0.479
13,1,7,1,f,23,2022-05-04 15:57:03.882855,neutre_2_flat.0502.eq.wav,1,1,0.0,-4.41702384,True,0.479
13,1,7,1,f,23,2022-05-04 15:57:03.882855,neutre_2_flat.0502.eq.wav,1,2,104.5876729,-1.08636015,True,0.479
13,1,7,1,f,23,2022-05-04 15:57:03.882855,neutre_2_flat.0502.eq.wav,1,3,224.80189054,-1.9230876,True,0.479
13,1,7,1,f,23,2022-05-04 15:57:03.882855,neutre_2_flat.0502.eq.wav,1,4,362.97743001,0.30390857,True,0.479
13,1,7,1,f,23,2022-05-04 15:57:03.882855,neutre_2_flat.0502.eq.wav,1,5,521.79790965,-0.40096946,True,0.479
13,1,7,1,f,23,2022-05-04 15:57:03.882855,neutre_2_flat.0502.eq.wav,1,6,704.34790983,2.35375189,True,0.479
13,1,7,1,f,23,2022-05-04 15:57:03.882855,neutre_2_flat.0502.eq.wav,1,7,914.17288101,-1.20338598,True,0.479
13,1,7,1,f,23,2022-05-04 15:57:03.882855,neutre_2_flat.0502.eq.wav,1,8,1155.34800284,2.61254204,True,0.479
13,1,7,1,f,23,2022-05-04 15:57:03.882855,neutre_2_flat.0502.eq.wav,1,9,1432.55733147,0.78656353,True,0.479
13,1,7,1,f,23,2022-05-04 15:57:03.882855,neutre_2_flat.0502.eq.wav,1,10,1751.18477235,-3.21915376,True,0.479
13,1,7,1,f,23,2022-05-04 15:57:03.882855,neutre_2_flat.0502.eq.wav,1,11,2117.41864548,-1.2429815,True,0.479
13,1,7,1,f,23,2022-05-04 15:57:03.882855,neutre_2_flat.0502.eq.wav,1,12,2538.37187364,-0.0647978,True,0.479
13,1,7,1,f,23,2022-05-04 15:57:03.882855,neutre_2_flat.0502.eq.wav,1,13,3022.22012828,-3.27755661,True,0.479
13,1,7,1,f,23,2022-05-04 15:57:03.882855,neutre_2_flat.0502.eq.wav,1,14,3578.36061576,-4.86471918,True,0.479
13,1,7,1,f,23,2022-05-04 15:57:03.882855,neutre_2_flat.0502.eq.wav,1,15,4217.59458808,0.66468654,True,0.479
13,1,7,1,f,23,2022-05-04 15:57:03.882855,neutre_2_flat.0502.eq.wav,1,16,4952.33712269,-0.86063918,True,0.479
13,1,7,1,f,23,2022-05-04 15:57:03.882855,neutre_2_flat.0502.eq.wav,1,17,5796.8582457,0.79733036,True,0.479
13,1,7,1,f,23,2022-05-04 15:57:03.882855,neutre_2_flat.0502.eq.wav,1,18,6767.56008152,-2.07734358,True,0.479
13,1,7,1,f,23,2022-05-04 15:57:03.882855,neutre_2_flat.0502.eq.wav,1,19,7883.29541175,-0.09861691,True,0.479
13,1,7,1,f,23,2022-05-04 15:57:03.882855,neutre_2_flat.0502.eq.wav,1,20,9165.73383021,-1.70216202,True,0.479
13,1,7,1,f,23,2022-05-04 15:57:03.882855,neutre_2_flat.0502.eq.wav,1,21,10639.78260555,-3.26265334,True,0.479
13,1,7,1,f,23,2022-05-04 15:57:03.882855,neutre_2_flat.0502.eq.wav,1,22,12334.07042541,-3.53946192,True,0.479
13,1,7,1,f,23,2022-05-04 15:57:03.882855,neutre_2_flat.0502.eq.wav,1,23,14281.50341712,-2.79191135,True,0.479
13,1,7,1,f,23,2022-05-04 15:57:03.882855,neutre_2_flat.0502.eq.wav,1,24,16519.90424416,0.32161843,True,0.479
13,1,7,1,f,23,2022-05-04 15:57:03.882855,neutre_2_flat.0502.eq.wav,1,25,19092.74669051,1.78819725,True,0.479
13,1,7,1,f,23,2022-05-04 15:57:03.882855,neutre_2_flat.0502.eq.wav,1,26,22050.0,-0.81746267,True,0.479
13,1,8,1,f,23,2022-05-04 15:57:03.882855,neutre_2_flat.0003.eq.wav,0,1,0.0,4.20345143,True,0.395
13,1,8,1,f,23,2022-05-04 15:57:03.882855,neutre_2_flat.0003.eq.wav,0,2,104.5876729,1.42495921,True,0.395
13,1,8,1,f,23,2022-05-04 15:57:03.882855,neutre_2_flat.0003.eq.wav,0,3,224.80189054,1.15274361,True,0.395
13,1,8,1,f,23,2022-05-04 15:57:03.882855,neutre_2_flat.0003.eq.wav,0,4,362.97743001,3.03265673,True,0.395
13,1,8,1,f,23,2022-05-04 15:57:03.882855,neutre_2_flat.0003.eq.wav,0,5,521.79790965,-2.84120997,True,0.395
13,1,8,1,f,23,2022-05-04 15:57:03.882855,neutre_2_flat.0003.eq.wav,0,6,704.34790983,1.13827041,True,0.395
13,1,8,1,f,23,2022-05-04 15:57:03.882855,neutre_2_flat.0003.eq.wav,0,7,914.17288101,-3.88136091,True,0.395
13,1,8,1,f,23,2022-05-04 15:57:03.882855,neutre_2_flat.0003.eq.wav,0,8,1155.34800284,-2.8666833,True,0.395
13,1,8,1,f,23,2022-05-04 15:57:03.882855,neutre_2_flat.0003.eq.wav,0,9,1432.55733147,1.92106592,True,0.395
13,1,8,1,f,23,2022-05-04 15:57:03.882855,neutre_2_flat.0003.eq.wav,0,10,1751.18477235,0.49086964,True,0.395
13,1,8,1,f,23,2022-05-04 15:57:03.882855,neutre_2_flat.0003.eq.wav,0,11,2117.41864548,1.17179697,True,0.395
13,1,8,1,f,23,2022-05-04 15:57:03.882855,neutre_2_flat.0003.eq.wav,0,12,2538.37187364,-2.23059707,True,0.395
13,1,8,1,f,23,2022-05-04 15:57:03.882855,neutre_2_flat.0003.eq.wav,0,13,3022.22012828,1.93287598,True,0.395
13,1,8,1,f,23,2022-05-04 15:57:03.882855,neutre_2_flat.0003.eq.wav,0,14,3578.36061576,-0.87001848,True,0.395
13,1,8,1,f,23,2022-05-04 15:57:03.882855,neutre_2_flat.0003.eq.wav,0,15,4217.59458808,3.85023303,True,0.395
13,1,8,1,f,23,2022-05-04 15:57:03.882855,neutre_2_flat.0003.eq.wav,0,16,4952.33712269,-3.90583879,True,0.395
13,1,8,1,f,23,2022-05-04 15:57:03.882855,neutre_2_flat.0003.eq.wav,0,17,5796.8582457,1.23752755,True,0.395
13,1,8,1,f,23,2022-05-04 15:57:03.882855,neutre_2_flat.0003.eq.wav,0,18,6767.56008152,-1.53193015,True,0.395
13,1,8,1,f,23,2022-05-04 15:57:03.882855,neutre_2_flat.0003.eq.wav,0,19,7883.29541175,-0.59035746,True,0.395
13,1,8,1,f,23,2022-05-04 15:57:03.882855,neutre_2_flat.0003.eq.wav,0,20,9165.73383021,-2.27739042,True,0.395
13,1,8,1,f,23,2022-05-04 15:57:03.882855,neutre_2_flat.0003.eq.wav,0,21,10639.78260555,-0.01928862,True,0.395
13,1,8,1,f,23,2022-05-04 15:57:03.882855,neutre_2_flat.0003.eq.wav,0,22,12334.07042541,0.89944032,True,0.395
13,1,8,1,f,23,2022-05-04 15:57:03.882855,neutre_2_flat.0003.eq.wav,0,23,14281.50341712,2.09655584,True,0.395
13,1,8,1,f,23,2022-05-04 15:57:03.882855,neutre_2_flat.0003.eq.wav,0,24,16519.90424416,-2.30768459,True,0.395
13,1,8,1,f,23,2022-05-04 15:57:03.882855,neutre_2_flat.0003.eq.wav,0,25,19092.74669051,1.14845548,True,0.395
13,1,8,1,f,23,2022-05-04 15:57:03.882855,neutre_2_flat.0003.eq.wav,0,26,22050.0,-4.2526015,True,0.395
13,1,8,1,f,23,2022-05-04 15:57:03.882855,neutre_2_flat.0503.eq.wav,1,1,0.0,-1.90047499,False,0.395
13,1,8,1,f,23,2022-05-04 15:57:03.882855,neutre_2_flat.0503.eq.wav,1,2,104.5876729,1.35124617,False,0.395
13,1,8,1,f,23,2022-05-04 15:57:03.882855,neutre_2_flat.0503.eq.wav,1,3,224.80189054,-2.28316313,False,0.395
13,1,8,1,f,23,2022-05-04 15:57:03.882855,neutre_2_flat.0503.eq.wav,1,4,362.97743001,2.73517432,False,0.395
13,1,8,1,f,23,2022-05-04 15:57:03.882855,neutre_2_flat.0503.eq.wav,1,5,521.79790965,3.68551529,False,0.395
13,1,8,1,f,23,2022-05-04 15:57:03.882855,neutre_2_flat.0503.eq.wav,1,6,704.34790983,0.7700432,False,0.395
13,1,8,1,f,23,2022-05-04 15:57:03.882855,neutre_2_flat.0503.eq.wav,1,7,914.17288101,-1.46834003,False,0.395
13,1,8,1,f,23,2022-05-04 15:57:03.882855,neutre_2_flat.0503.eq.wav,1,8,1155.34800284,3.33924794,False,0.395
13,1,8,1,f,23,2022-05-04 15:57:03.882855,neutre_2_flat.0503.eq.wav,1,9,1432.55733147,-4.62264431,False,0.395
13,1,8,1,f,23,2022-05-04 15:57:03.882855,neutre_2_flat.0503.eq.wav,1,10,1751.18477235,-3.94362678,False,0.395
13,1,8,1,f,23,2022-05-04 15:57:03.882855,neutre_2_flat.0503.eq.wav,1,11,2117.41864548,-0.94959073,False,0.395
13,1,8,1,f,23,2022-05-04 15:57:03.882855,neutre_2_flat.0503.eq.wav,1,12,2538.37187364,-3.99754763,False,0.395
13,1,8,1,f,23,2022-05-04 15:57:03.882855,neutre_2_flat.0503.eq.wav,1,13,3022.22012828,-3.90709514,False,0.395
13,1,8,1,f,23,2022-05-04 15:57:03.882855,neutre_2_flat.0503.eq.wav,1,14,3578.36061576,-2.76361878,False,0.395
13,1,8,1,f,23,2022-05-04 15:57:03.882855,neutre_2_flat.0503.eq.wav,1,15,4217.59458808,0.56308035,False,0.395
13,1,8,1,f,23,2022-05-04 15:57:03.882855,neutre_2_flat.0503.eq.wav,1,16,4952.33712269,0.06873206,False,0.395
13,1,8,1,f,23,2022-05-04 15:57:03.882855,neutre_2_flat.0503.eq.wav,1,17,5796.8582457,2.23538706,False,0.395
13,1,8,1,f,23,2022-05-04 15:57:03.882855,neutre_2_flat.0503.eq.wav,1,18,6767.56008152,-4.81442562,False,0.395
13,1,8,1,f,23,2022-05-04 15:57:03.882855,neutre_2_flat.0503.eq.wav,1,19,7883.29541175,4.51144622,False,0.395
13,1,8,1,f,23,2022-05-04 15:57:03.882855,neutre_2_flat.0503.eq.wav,1,20,9165.73383021,-2.89987352,False,0.395
13,1,8,1,f,23,2022-05-04 15:57:03.882855,neutre_2_flat.0503.eq.wav,1,21,10639.78260555,3.65212659,False,0.395
13,1,8,1,f,23,2022-05-04 15:57:03.882855,neutre_2_flat.0503.eq.wav,1,22,12334.07042541,-4.60669076,False,0.395
13,1,8,1,f,23,2022-05-04 15:57:03.882855,neutre_2_flat.0503.eq.wav,1,23,14281.50341712,-0.70393666,False,0.395
13,1,8,1,f,23,2022-05-04 15:57:03.882855,neutre_2_flat.0503.eq.wav,1,24,16519.90424416,1.91807227,False,0.395
13,1,8,1,f,23,2022-05-04 15:57:03.882855,neutre_2_flat.0503.eq.wav,1,25,19092.74669051,3.49629775,False,0.395
13,1,8,1,f,23,2022-05-04 15:57:03.882855,neutre_2_flat.0503.eq.wav,1,26,22050.0,-4.17362831,False,0.395
13,1,9,1,f,23,2022-05-04 15:57:03.882855,neutre_2_flat.0004.eq.wav,0,1,0.0,-0.5984206,True,1.076
13,1,9,1,f,23,2022-05-04 15:57:03.882855,neutre_2_flat.0004.eq.wav,0,2,104.5876729,1.52576228,True,1.076
13,1,9,1,f,23,2022-05-04 15:57:03.882855,neutre_2_flat.0004.eq.wav,0,3,224.80189054,4.39758271,True,1.076
13,1,9,1,f,23,2022-05-04 15:57:03.882855,neutre_2_flat.0004.eq.wav,0,4,362.97743001,0.25826517,True,1.076
13,1,9,1,f,23,2022-05-04 15:57:03.882855,neutre_2_flat.0004.eq.wav,0,5,521.79790965,-1.7831315,True,1.076
13,1,9,1,f,23,2022-05-04 15:57:03.882855,neutre_2_flat.0004.eq.wav,0,6,704.34790983,-3.45676854,True,1.076
13,1,9,1,f,23,2022-05-04 15:57:03.882855,neutre_2_flat.0004.eq.wav,0,7,914.17288101,2.15985403,True,1.076
13,1,9,1,f,23,2022-05-04 15:57:03.882855,neutre_2_flat.0004.eq.wav,0,8,1155.34800284,-0.05923731,True,1.076
13,1,9,1,f,23,2022-05-04 15:57:03.882855,neutre_2_flat.0004.eq.wav,0,9,1432.55733147,0.49794621,True,1.076
13,1,9,1,f,23,2022-05-04 15:57:03.882855,neutre_2_flat.0004.eq.wav,0,10,1751.18477235,3.7044105,True,1.076
13,1,9,1,f,23,2022-05-04 15:57:03.882855,neutre_2_flat.0004.eq.wav,0,11,2117.41864548,4.74893126,True,1.076
13,1,9,1,f,23,2022-05-04 15:57:03.882855,neutre_2_flat.0004.eq.wav,0,12,2538.37187364,-1.56171045,True,1.076
13,1,9,1,f,23,2022-05-04 15:57:03.882855,neutre_2_flat.0004.eq.wav,0,13,3022.22012828,-4.46701723,True,1.076
13,1,9,1,f,23,2022-05-04 15:57:03.882855,neutre_2_flat.0004.eq.wav,0,14,3578.36061576,-1.18463592,True,1.076
13,1,9,1,f,23,2022-05-04 15:57:03.882855,neutre_2_flat.0004.eq.wav,0,15,4217.59458808,-3.98025168,True,1.076
13,1,9,1,f,23,2022-05-04 15:57:03.882855,neutre_2_flat.0004.eq.wav,0,16,4952.33712269,-1.38501706,True,1.076
13,1,9,1,f,23,2022-05-04 15:57:03.882855,neutre_2_flat.0004.eq.wav,0,17,5796.8582457,3.2910067,True,1.076
13,1,9,1,f,23,2022-05-04 15:57:03.882855,neutre_2_flat.0004.eq.wav,0,18,6767.56008152,4.10469428,True,1.076
13,1,9,1,f,23,2022-05-04 15:57:03.882855,neutre_2_flat.0004.eq.wav,0,19,7883.29541175,1.34297165,True,1.076
13,1,9,1,f,23,2022-05-04 15:57:03.882855,neutre_2_flat.0004.eq.wav,0,20,9165.73383021,-0.33277783,True,1.076
13,1,9,1,f,23,2022-05-04 15:57:03.882855,neutre_2_flat.0004.eq.wav,0,21,10639.78260555,0.32994724,True,1.076
13,1,9,1,f,23,2022-05-04 15:57:03.882855,neutre_2_flat.0004.eq.wav,0,22,12334.07042541,1.26346669,True,1.076
13,1,9,1,f,23,2022-05-04 15:57:03.882855,neutre_2_flat.0004.eq.wav,0,23,14281.50341712,-1.50656691,True,1.076
13,1,9,1,f,23,2022-05-04 15:57:03.882855,neutre_2_flat.0004.eq.wav,0,24,16519.90424416,-0.04636159,True,1.076
13,1,9,1,f,23,2022-05-04 15:57:03.882855,neutre_2_flat.0004.eq.wav,0,25,19092.74669051,3.4953017,True,1.076
13,1,9,1,f,23,2022-05-04 15:57:03.882855,neutre_2_flat.0004.eq.wav,0,26,22050.0,1.72620729,True,1.076
13,1,9,1,f,23,2022-05-04 15:57:03.882855,neutre_2_flat.0504.eq.wav,1,1,0.0,3.22015637,False,1.076
13,1,9,1,f,23,2022-05-04 15:57:03.882855,neutre_2_flat.0504.eq.wav,1,2,104.5876729,1.16755198,False,1.076
13,1,9,1,f,23,2022-05-04 15:57:03.882855,neutre_2_flat.0504.eq.wav,1,3,224.80189054,4.00017207,False,1.076
13,1,9,1,f,23,2022-05-04 15:57:03.882855,neutre_2_flat.0504.eq.wav,1,4,362.97743001,-0.6783076,False,1.076
13,1,9,1,f,23,2022-05-04 15:57:03.882855,neutre_2_flat.0504.eq.wav,1,5,521.79790965,2.4420326,False,1.076
13,1,9,1,f,23,2022-05-04 15:57:03.882855,neutre_2_flat.0504.eq.wav,1,6,704.34790983,-1.3621845,False,1.076
13,1,9,1,f,23,2022-05-04 15:57:03.882855,neutre_2_flat.0504.eq.wav,1,7,914.17288101,2.09659063,False,1.076
13,1,9,1,f,23,2022-05-04 15:57:03.882855,neutre_2_flat.0504.eq.wav,1,8,1155.34800284,2.74999305,False,1.076
13,1,9,1,f,23,2022-05-04 15:57:03.882855,neutre_2_flat.0504.eq.wav,1,9,1432.55733147,2.13691815,False,1.076
13,1,9,1,f,23,2022-05-04 15:57:03.882855,neutre_2_flat.0504.eq.wav,1,10,1751.18477235,4.39298844,False,1.076
13,1,9,1,f,23,2022-05-04 15:57:03.882855,neutre_2_flat.0504.eq.wav,1,11,2117.41864548,-1.81962999,False,1.076
13,1,9,1,f,23,2022-05-04 15:57:03.882855,neutre_2_flat.0504.eq.wav,1,12,2538.37187364,2.09399874,False,1.076
13,1,9,1,f,23,2022-05-04 15:57:03.882855,neutre_2_flat.0504.eq.wav,1,13,3022.22012828,-0.22656969,False,1.076
13,1,9,1,f,23,2022-05-04 15:57:03.882855,neutre_2_flat.0504.eq.wav,1,14,3578.36061576,-1.30414717,False,1.076
13,1,9,1,f,23,2022-05-04 15:57:03.882855,neutre_2_flat.0504.eq.wav,1,15,4217.59458808,-1.31798725,False,1.076
13,1,9,1,f,23,2022-05-04 15:57:03.882855,neutre_2_flat.0504.eq.wav,1,16,4952.33712269,-2.94522339,False,1.076
13,1,9,1,f,23,2022-05-04 15:57:03.882855,neutre_2_flat.0504.eq.wav,1,17,5796.8582457,-3.10187136,False,1.076
13,1,9,1,f,23,2022-05-04 15:57:03.882855,neutre_2_flat.0504.eq.wav,1,18,6767.56008152,3.07078908,False,1.076
13,1,9,1,f,23,2022-05-04 15:57:03.882855,neutre_2_flat.0504.eq.wav,1,19,7883.29541175,1.37287591,False,1.076
13,1,9,1,f,23,2022-05-04 15:57:03.882855,neutre_2_flat.0504.eq.wav,1,20,9165.73383021,1.73521173,False,1.076
13,1,9,1,f,23,2022-05-04 15:57:03.882855,neutre_2_flat.0504.eq.wav,1,21,10639.78260555,0.82083128,False,1.076
13,1,9,1,f,23,2022-05-04 15:57:03.882855,neutre_2_flat.0504.eq.wav,1,22,12334.07042541,1.04749009,False,1.076
13,1,9,1,f,23,2022-05-04 15:57:03.882855,neutre_2_flat.0504.eq.wav,1,23,14281.50341712,1.50277929,False,1.076
13,1,9,1,f,23,2022-05-04 15:57:03.882855,neutre_2_flat.0504.eq.wav,1,24,16519.90424416,-1.70279503,False,1.076
13,1,9,1,f,23,2022-05-04 15:57:03.882855,neutre_2_flat.0504.eq.wav,1,25,19092.74669051,-1.06606326,False,1.076
13,1,9,1,f,23,2022-05-04 15:57:03.882855,neutre_2_flat.0504.eq.wav,1,26,22050.0,3.20826233,False,1.076
13,1,10,1,f,23,2022-05-04 15:57:03.882855,neutre_2_flat.0005.eq.wav,0,1,0.0,-4.83637277,False,1.354
13,1,10,1,f,23,2022-05-04 15:57:03.882855,neutre_2_flat.0005.eq.wav,0,2,104.5876729,-4.17521426,False,1.354
13,1,10,1,f,23,2022-05-04 15:57:03.882855,neutre_2_flat.0005.eq.wav,0,3,224.80189054,-2.76423736,False,1.354
13,1,10,1,f,23,2022-05-04 15:57:03.882855,neutre_2_flat.0005.eq.wav,0,4,362.97743001,-2.75569231,False,1.354
13,1,10,1,f,23,2022-05-04 15:57:03.882855,neutre_2_flat.0005.eq.wav,0,5,521.79790965,4.13192115,False,1.354
13,1,10,1,f,23,2022-05-04 15:57:03.882855,neutre_2_flat.0005.eq.wav,0,6,704.34790983,4.74780953,False,1.354
13,1,10,1,f,23,2022-05-04 15:57:03.882855,neutre_2_flat.0005.eq.wav,0,7,914.17288101,-1.59579352,False,1.354
13,1,10,1,f,23,2022-05-04 15:57:03.882855,neutre_2_flat.0005.eq.wav,0,8,1155.34800284,-0.78072737,False,1.354
13,1,10,1,f,23,2022-05-04 15:57:03.882855,neutre_2_flat.0005.eq.wav,0,9,1432.55733147,-3.00434631,False,1.354
13,1,10,1,f,23,2022-05-04 15:57:03.882855,neutre_2_flat.0005.eq.wav,0,10,1751.18477235,0.57391402,False,1.354
13,1,10,1,f,23,2022-05-04 15:57:03.882855,neutre_2_flat.0005.eq.wav,0,11,2117.41864548,-3.25559276,False,1.354
13,1,10,1,f,23,2022-05-04 15:57:03.882855,neutre_2_flat.0005.eq.wav,0,12,2538.37187364,2.51134669,False,1.354
13,1,10,1,f,23,2022-05-04 15:57:03.882855,neutre_2_flat.0005.eq.wav,0,13,3022.22012828,-1.47699865,False,1.354
13,1,10,1,f,23,2022-05-04 15:57:03.882855,neutre_2_flat.0005.eq.wav,0,14,3578.36061576,-3.11860609,False,1.354
13,1,10,1,f,23,2022-05-04 15:57:03.882855,neutre_2_flat.0005.eq.wav,0,15,4217.59458808,0.31198835,False,1.354
13,1,10,1,f,23,2022-05-04 15:57:03.882855,neutre_2_flat.0005.eq.wav,0,16,4952.33712269,4.68963917,False,1.354
13,1,10,1,f,23,2022-05-04 15:57:03.882855,neutre_2_flat.0005.eq.wav,0,17,5796.8582457,1.53274545,False,1.354
13,1,10,1,f,23,2022-05-04 15:57:03.882855,neutre_2_flat.0005.eq.wav,0,18,6767.56008152,0.10068353,False,1.354
13,1,10,1,f,23,2022-05-04 15:57:03.882855,neutre_2_flat.0005.eq.wav,0,19,7883.29541175,1.58630198,False,1.354
13,1,10,1,f,23,2022-05-04 15:57:03.882855,neutre_2_flat.0005.eq.wav,0,20,9165.73383021,1.36494394,False,1.354
13,1,10,1,f,23,2022-05-04 15:57:03.882855,neutre_2_flat.0005.eq.wav,0,21,10639.78260555,1.54782921,False,1.354
13,1,10,1,f,23,2022-05-04 15:57:03.882855,neutre_2_flat.0005.eq.wav,0,22,12334.07042541,-1.23839956,False,1.354
13,1,10,1,f,23,2022-05-04 15:57:03.882855,neutre_2_flat.0005.eq.wav,0,23,14281.50341712,-4.20403411,False,1.354
13,1,10,1,f,23,2022-05-04 15:57:03.882855,neutre_2_flat.0005.eq.wav,0,24,16519.90424416,-3.03423,False,1.354
13,1,10,1,f,23,2022-05-04 15:57:03.882855,neutre_2_flat.0005.eq.wav,0,25,19092.74669051,3.94663144,False,1.354
13,1,10,1,f,23,2022-05-04 15:57:03.882855,neutre_2_flat.0005.eq.wav,0,26,22050.0,1.80607739,False,1.354
13,1,10,1,f,23,2022-05-04 15:57:03.882855,neutre_2_flat.0505.eq.wav,1,1,0.0,-3.02413005,True,1.354
13,1,10,1,f,23,2022-05-04 15:57:03.882855,neutre_2_flat.0505.eq.wav,1,2,104.5876729,-4.40967115,True,1.354
13,1,10,1,f,23,2022-05-04 15:57:03.882855,neutre_2_flat.0505.eq.wav,1,3,224.80189054,-3.86631934,True,1.354
13,1,10,1,f,23,2022-05-04 15:57:03.882855,neutre_2_flat.0505.eq.wav,1,4,362.97743001,-4.74951596,True,1.354
13,1,10,1,f,23,2022-05-04 15:57:03.882855,neutre_2_flat.0505.eq.wav,1,5,521.79790965,-0.38164285,True,1.354
13,1,10,1,f,23,2022-05-04 15:57:03.882855,neutre_2_flat.0505.eq.wav,1,6,704.34790983,2.28618383,True,1.354
13,1,10,1,f,23,2022-05-04 15:57:03.882855,neutre_2_flat.0505.eq.wav,1,7,914.17288101,-3.14673703,True,1.354
13,1,10,1,f,23,2022-05-04 15:57:03.882855,neutre_2_flat.0505.eq.wav,1,8,1155.34800284,2.80039066,True,1.354
13,1,10,1,f,23,2022-05-04 15:57:03.882855,neutre_2_flat.0505.eq.wav,1,9,1432.55733147,-2.22125288,True,1.354
13,1,10,1,f,23,2022-05-04 15:57:03.882855,neutre_2_flat.0505.eq.wav,1,10,1751.18477235,3.00567708,True,1.354
13,1,10,1,f,23,2022-05-04 15:57:03.882855,neutre_2_flat.0505.eq.wav,1,11,2117.41864548,-3.96297436,True,1.354
13,1,10,1,f,23,2022-05-04 15:57:03.882855,neutre_2_flat.0505.eq.wav,1,12,2538.37187364,3.49426684,True,1.354
13,1,10,1,f,23,2022-05-04 15:57:03.882855,neutre_2_flat.0505.eq.wav,1,13,3022.22012828,2.1735142,True,1.354
13,1,10,1,f,23,2022-05-04 15:57:03.882855,neutre_2_flat.0505.eq.wav,1,14,3578.36061576,3.62063154,True,1.354
13,1,10,1,f,23,2022-05-04 15:57:03.882855,neutre_2_flat.0505.eq.wav,1,15,4217.59458808,-1.8197455,True,1.354
13,1,10,1,f,23,2022-05-04 15:57:03.882855,neutre_2_flat.0505.eq.wav,1,16,4952.33712269,-1.29140661,True,1.354
13,1,10,1,f,23,2022-05-04 15:57:03.882855,neutre_2_flat.0505.eq.wav,1,17,5796.8582457,-3.16991057,True,1.354
13,1,10,1,f,23,2022-05-04 15:57:03.882855,neutre_2_flat.0505.eq.wav,1,18,6767.56008152,-0.18418222,True,1.354
13,1,10,1,f,23,2022-05-04 15:57:03.882855,neutre_2_flat.0505.eq.wav,1,19,7883.29541175,1.14762396,True,1.354
13,1,10,1,f,23,2022-05-04 15:57:03.882855,neutre_2_flat.0505.eq.wav,1,20,9165.73383021,-1.61594745,True,1.354
13,1,10,1,f,23,2022-05-04 15:57:03.882855,neutre_2_flat.0505.eq.wav,1,21,10639.78260555,3.283233,True,1.354
13,1,10,1,f,23,2022-05-04 15:57:03.882855,neutre_2_flat.0505.eq.wav,1,22,12334.07042541,0.10190396,True,1.354
13,1,10,1,f,23,2022-05-04 15:57:03.882855,neutre_2_flat.0505.eq.wav,1,23,14281.50341712,0.1627603,True,1.354
13,1,10,1,f,23,2022-05-04 15:57:03.882855,neutre_2_flat.0505.eq.wav,1,24,16519.90424416,-1.641744,True,1.354
13,1,10,1,f,23,2022-05-04 15:57:03.882855,neutre_2_flat.0505.eq.wav,1,25,19092.74669051,2.20092282,True,1.354
13,1,10,1,f,23,2022-05-04 15:57:03.882855,neutre_2_flat.0505.eq.wav,1,26,22050.0,-0.7792288,True,1.354
13,1,11,1,f,23,2022-05-04 15:57:03.882855,neutre_2_flat.0006.eq.wav,0,1,0.0,-1.32053861,True,1.511
13,1,11,1,f,23,2022-05-04 15:57:03.882855,neutre_2_flat.0006.eq.wav,0,2,104.5876729,-2.97166415,True,1.511
13,1,11,1,f,23,2022-05-04 15:57:03.882855,neutre_2_flat.0006.eq.wav,0,3,224.80189054,3.37442762,True,1.511
13,1,11,1,f,23,2022-05-04 15:57:03.882855,neutre_2_flat.0006.eq.wav,0,4,362.97743001,3.40294512,True,1.511
13,1,11,1,f,23,2022-05-04 15:57:03.882855,neutre_2_flat.0006.eq.wav,0,5,521.79790965,-0.03490949,True,1.511
13,1,11,1,f,23,2022-05-04 15:57:03.882855,neutre_2_flat.0006.eq.wav,0,6,704.34790983,3.90213047,True,1.511
13,1,11,1,f,23,2022-05-04 15:57:03.882855,neutre_2_flat.0006.eq.wav,0,7,914.17288101,-3.51931566,True,1.511
13,1,11,1,f,23,2022-05-04 15:57:03.882855,neutre_2_flat.0006.eq.wav,0,8,1155.34800284,-1.13277091,True,1.511
13,1,11,1,f,23,2022-05-04 15:57:03.882855,neutre_2_flat.0006.eq.wav,0,9,1432.55733147,2.00282485,True,1.511
13,1,11,1,f,23,2022-05-04 15:57:03.882855,neutre_2_flat.0006.eq.wav,0,10,1751.18477235,-0.06593931,True,1.511
13,1,11,1,f,23,2022-05-04 15:57:03.882855,neutre_2_flat.0006.eq.wav,0,11,2117.41864548,1.20331374,True,1.511
13,1,11,1,f,23,2022-05-04 15:57:03.882855,neutre_2_flat.0006.eq.wav,0,12,2538.37187364,-0.98471345,True,1.511
13,1,11,1,f,23,2022-05-04 15:57:03.882855,neutre_2_flat.0006.eq.wav,0,13,3022.22012828,0.89291671,True,1.511
13,1,11,1,f,23,2022-05-04 15:57:03.882855,neutre_2_flat.0006.eq.wav,0,14,3578.36061576,-0.79815658,True,1.511
13,1,11,1,f,23,2022-05-04 15:57:03.882855,neutre_2_flat.0006.eq.wav,0,15,4217.59458808,-0.32600485,True,1.511
13,1,11,1,f,23,2022-05-04 15:57:03.882855,neutre_2_flat.0006.eq.wav,0,16,4952.33712269,-0.33931889,True,1.511
13,1,11,1,f,23,2022-05-04 15:57:03.882855,neutre_2_flat.0006.eq.wav,0,17,5796.8582457,-3.78692586,True,1.511
13,1,11,1,f,23,2022-05-04 15:57:03.882855,neutre_2_flat.0006.eq.wav,0,18,6767.56008152,2.35612743,True,1.511
13,1,11,1,f,23,2022-05-04 15:57:03.882855,neutre_2_flat.0006.eq.wav,0,19,7883.29541175,4.53103647,True,1.511
13,1,11,1,f,23,2022-05-04 15:57:03.882855,neutre_2_flat.0006.eq.wav,0,20,9165.73383021,-3.68405044,True,1.511
13,1,11,1,f,23,2022-05-04 15:57:03.882855,neutre_2_flat.0006.eq.wav,0,21,10639.78260555,-2.0772753,True,1.511
13,1,11,1,f,23,2022-05-04 15:57:03.882855,neutre_2_flat.0006.eq.wav,0,22,12334.07042541,0.26507417,True,1.511
13,1,11,1,f,23,2022-05-04 15:57:03.882855,neutre_2_flat.0006.eq.wav,0,23,14281.50341712,-2.97378576,True,1.511
13,1,11,1,f,23,2022-05-04 15:57:03.882855,neutre_2_flat.0006.eq.wav,0,24,16519.90424416,1.02437962,True,1.511
13,1,11,1,f,23,2022-05-04 15:57:03.882855,neutre_2_flat.0006.eq.wav,0,25,19092.74669051,2.29543414,True,1.511
13,1,11,1,f,23,2022-05-04 15:57:03.882855,neutre_2_flat.0006.eq.wav,0,26,22050.0,-1.68001093,True,1.511
13,1,11,1,f,23,2022-05-04 15:57:03.882855,neutre_2_flat.0506.eq.wav,1,1,0.0,-3.65511426,False,1.511
13,1,11,1,f,23,2022-05-04 15:57:03.882855,neutre_2_flat.0506.eq.wav,1,2,104.5876729,1.92081905,False,1.511
13,1,11,1,f,23,2022-05-04 15:57:03.882855,neutre_2_flat.0506.eq.wav,1,3,224.80189054,2.11860572,False,1.511
13,1,11,1,f,23,2022-05-04 15:57:03.882855,neutre_2_flat.0506.eq.wav,1,4,362.97743001,3.5054169,False,1.511
13,1,11,1,f,23,2022-05-04 15:57:03.882855,neutre_2_flat.0506.eq.wav,1,5,521.79790965,-0.47778982,False,1.511
13,1,11,1,f,23,2022-05-04 15:57:03.882855,neutre_2_flat.0506.eq.wav,1,6,704.34790983,2.06233229,False,1.511
13,1,11,1,f,23,2022-05-04 15:57:03.882855,neutre_2_flat.0506.eq.wav,1,7,914.17288101,4.14305124,False,1.511
13,1,11,1,f,23,2022-05-04 15:57:03.882855,neutre_2_flat.0506.eq.wav,1,8,1155.34800284,-3.6015836,False,1.511
13,1,11,1,f,23,2022-05-04 15:57:03.882855,neutre_2_flat.0506.eq.wav,1,9,1432.55733147,-2.32545868,False,1.511
13,1,11,1,f,23,2022-05-04 15:57:03.882855,neutre_2_flat.0506.eq.wav,1,10,1751.18477235,-2.36775476,False,1.511
13,1,11,1,f,23,2022-05-04 15:57:03.882855,neutre_2_flat.0506.eq.wav,1,11,2117.41864548,0.71475408,False,1.511
13,1,11,1,f,23,2022-05-04 15:57:03.882855,neutre_2_flat.0506.eq.wav,1,12,2538.37187364,1.2825136,False,1.511
13,1,11,1,f,23,2022-05-04 15:57:03.882855,neutre_2_flat.0506.eq.wav,1,13,3022.22012828,-2.90198339,False,1.511
13,1,11,1,f,23,2022-05-04 15:57:03.882855,neutre_2_flat.0506.eq.wav,1,14,3578.36061576,0.5466929,False,1.511
13,1,11,1,f,23,2022-05-04 15:57:03.882855,neutre_2_flat.0506.eq.wav,1,15,4217.59458808,-3.36121221,False,1.511
13,1,11,1,f,23,2022-05-04 15:57:03.882855,neutre_2_flat.0506.eq.wav,1,16,4952.33712269,3.00983785,False,1.511
13,1,11,1,f,23,2022-05-04 15:57:03.882855,neutre_2_flat.0506.eq.wav,1,17,5796.8582457,-1.6641377,False,1.511
13,1,11,1,f,23,2022-05-04 15:57:03.882855,neutre_2_flat.0506.eq.wav,1,18,6767.56008152,1.15253964,False,1.511
13,1,11,1,f,23,2022-05-04 15:57:03.882855,neutre_2_flat.0506.eq.wav,1,19,7883.29541175,2.19177026,False,1.511
13,1,11,1,f,23,2022-05-04 15:57:03.882855,neutre_2_flat.0506.eq.wav,1,20,9165.73383021,2.51305214,False,1.511
13,1,11,1,f,23,2022-05-04 15:57:03.882855,neutre_2_flat.0506.eq.wav,1,21,10639.78260555,1.58817325,False,1.511
13,1,11,1,f,23,2022-05-04 15:57:03.882855,neutre_2_flat.0506.eq.wav,1,22,12334.07042541,-1.71811899,False,1.511
13,1,11,1,f,23,2022-05-04 15:57:03.882855,neutre_2_flat.0506.eq.wav,1,23,14281.50341712,1.44381914,False,1.511
13,1,11,1,f,23,2022-05-04 15:57:03.882855,neutre_2_flat.0506.eq.wav,1,24,16519.90424416,4.33848475,False,1.511
13,1,11,1,f,23,2022-05-04 15:57:03.882855,neutre_2_flat.0506.eq.wav,1,25,19092.74669051,3.16157026,False,1.511
13,1,11,1,f,23,2022-05-04 15:57:03.882855,neutre_2_flat.0506.eq.wav,1,26,22050.0,3.02325006,False,1.511
13,1,12,1,f,23,2022-05-04 15:57:03.882855,neutre_2_flat.0007.eq.wav,0,1,0.0,-3.95178808,False,0.654
13,1,12,1,f,23,2022-05-04 15:57:03.882855,neutre_2_flat.0007.eq.wav,0,2,104.5876729,0.70249228,False,0.654
13,1,12,1,f,23,2022-05-04 15:57:03.882855,neutre_2_flat.0007.eq.wav,0,3,224.80189054,-0.3654616,False,0.654
13,1,12,1,f,23,2022-05-04 15:57:03.882855,neutre_2_flat.0007.eq.wav,0,4,362.97743001,-2.83200919,False,0.654
13,1,12,1,f,23,2022-05-04 15:57:03.882855,neutre_2_flat.0007.eq.wav,0,5,521.79790965,0.46934766,False,0.654
13,1,12,1,f,23,2022-05-04 15:57:03.882855,neutre_2_flat.0007.eq.wav,0,6,704.34790983,-2.99042498,False,0.654
13,1,12,1,f,23,2022-05-04 15:57:03.882855,neutre_2_flat.0007.eq.wav,0,7,914.17288101,-2.129744,False,0.654
13,1,12,1,f,23,2022-05-04 15:57:03.882855,neutre_2_flat.0007.eq.wav,0,8,1155.34800284,2.06648998,False,0.654
13,1,12,1,f,23,2022-05-04 15:57:03.882855,neutre_2_flat.0007.eq.wav,0,9,1432.55733147,0.1273972,False,0.654
13,1,12,1,f,23,2022-05-04 15:57:03.882855,neutre_2_flat.0007.eq.wav,0,10,1751.18477235,2.13244321,False,0.654
13,1,12,1,f,23,2022-05-04 15:57:03.882855,neutre_2_flat.0007.eq.wav,0,11,2117.41864548,1.16629554,False,0.654
13,1,12,1,f,23,2022-05-04 15:57:03.882855,neutre_2_flat.0007.eq.wav,0,12,2538.37187364,-1.48243993,False,0.654
13,1,12,1,f,23,2022-05-04 15:57:03.882855,neutre_2_flat.0007.eq.wav,0,13,3022.22012828,-2.34832384,False,0.654
13,1,12,1,f,23,2022-05-04 15:57:03.882855,neutre_2_flat.0007.eq.wav,0,14,3578.36061576,1.65142131,False,0.654
13,1,12,1,f,23,2022-05-04 15:57:03.882855,neutre_2_flat.0007.eq.wav,0,15,4217.59458808,1.14020492,False,0.654
13,1,12,1,f,23,2022-05-04 15:57:03.882855,neutre_2_flat.0007.eq.wav,0,16,4952.33712269,-4.94098094,False,0.654
13,1,12,1,f,23,2022-05-04 15:57:03.882855,neutre_2_flat.0007.eq.wav,0,17,5796.8582457,-2.04218902,False,0.654
13,1,12,1,f,23,2022-05-04 15:57:03.882855,neutre_2_flat.0007.eq.wav,0,18,6767.56008152,-2.17148228,False,0.654
13,1,12,1,f,23,2022-05-04 15:57:03.882855,neutre_2_flat.0007.eq.wav,0,19,7883.29541175,-3.94416597,False,0.654
13,1,12,1,f,23,2022-05-04 15:57:03.882855,neutre_2_flat.0007.eq.wav,0,20,9165.73383021,-2.53281262,False,0.654
13,1,12,1,f,23,2022-05-04 15:57:03.882855,neutre_2_flat.0007.eq.wav,0,21,10639.78260555,0.65851911,False,0.654
13,1,12,1,f,23,2022-05-04 15:57:03.882855,neutre_2_flat.0007.eq.wav,0,22,12334.07042541,-0.12718164,False,0.654
13,1,12,1,f,23,2022-05-04 15:57:03.882855,neutre_2_flat.0007.eq.wav,0,23,14281.50341712,-0.45066227,False,0.654
13,1,12,1,f,23,2022-05-04 15:57:03.882855,neutre_2_flat.0007.eq.wav,0,24,16519.90424416,-1.22614969,False,0.654
13,1,12,1,f,23,2022-05-04 15:57:03.882855,neutre_2_flat.0007.eq.wav,0,25,19092.74669051,0.88250921,False,0.654
13,1,12,1,f,23,2022-05-04 15:57:03.882855,neutre_2_flat.0007.eq.wav,0,26,22050.0,2.04173532,False,0.654
13,1,12,1,f,23,2022-05-04 15:57:03.882855,neutre_2_flat.0507.eq.wav,1,1,0.0,-2.22241863,True,0.654
13,1,12,1,f,23,2022-05-04 15:57:03.882855,neutre_2_flat.0507.eq.wav,1,2,104.5876729,0.31253274,True,0.654
13,1,12,1,f,23,2022-05-04 15:57:03.882855,neutre_2_flat.0507.eq.wav,1,3,224.80189054,0.75073011,True,0.654
13,1,12,1,f,23,2022-05-04 15:57:03.882855,neutre_2_flat.0507.eq.wav,1,4,362.97743001,-0.7826819,True,0.654
13,1,12,1,f,23,2022-05-04 15:57:03.882855,neutre_2_flat.0507.eq.wav,1,5,521.79790965,0.59294163,True,0.654
13,1,12,1,f,23,2022-05-04 15:57:03.882855,neutre_2_flat.0507.eq.wav,1,6,704.34790983,3.36600448,True,0.654
13,1,12,1,f,23,2022-05-04 15:57:03.882855,neutre_2_flat.0507.eq.wav,1,7,914.17288101,3.8977667,True,0.654
13,1,12,1,f,23,2022-05-04 15:57:03.882855,neutre_2_flat.0507.eq.wav,1,8,1155.34800284,0.63713131,True,0.654
13,1,12,1,f,23,2022-05-04 15:57:03.882855,neutre_2_flat.0507.eq.wav,1,9,1432.55733147,-1.7418273,True,0.654
13,1,12,1,f,23,2022-05-04 15:57:03.882855,neutre_2_flat.0507.eq.wav,1,10,1751.18477235,-3.0953891,True,0.654
13,1,12,1,f,23,2022-05-04 15:57:03.882855,neutre_2_flat.0507.eq.wav,1,11,2117.41864548,-3.75225678,True,0.654
13,1,12,1,f,23,2022-05-04 15:57:03.882855,neutre_2_flat.0507.eq.wav,1,12,2538.37187364,-3.55326161,True,0.654
13,1,12,1,f,23,2022-05-04 15:57:03.882855,neutre_2_flat.0507.eq.wav,1,13,3022.22012828,0.44425645,True,0.654
13,1,12,1,f,23,2022-05-04 15:57:03.882855,neutre_2_flat.0507.eq.wav,1,14,3578.36061576,2.9469038,True,0.654
13,1,12,1,f,23,2022-05-04 15:57:03.882855,neutre_2_flat.0507.eq.wav,1,15,4217.59458808,-3.05010536,True,0.654
13,1,12,1,f,23,2022-05-04 15:57:03.882855,neutre_2_flat.0507.eq.wav,1,16,4952.33712269,-0.36968364,True,0.654
13,1,12,1,f,23,2022-05-04 15:57:03.882855,neutre_2_flat.0507.eq.wav,1,17,5796.8582457,2.71930914,True,0.654
13,1,12,1,f,23,2022-05-04 15:57:03.882855,neutre_2_flat.0507.eq.wav,1,18,6767.56008152,-2.08443942,True,0.654
13,1,12,1,f,23,2022-05-04 15:57:03.882855,neutre_2_flat.0507.eq.wav,1,19,7883.29541175,-0.55642972,True,0.654
13,1,12,1,f,23,2022-05-04 15:57:03.882855,neutre_2_flat.0507.eq.wav,1,20,9165.73383021,1.12656748,True,0.654
13,1,12,1,f,23,2022-05-04 15:57:03.882855,neutre_2_flat.0507.eq.wav,1,21,10639.78260555,3.44601654,True,0.654
13,1,12,1,f,23,2022-05-04 15:57:03.882855,neutre_2_flat.0507.eq.wav,1,22,12334.07042541,3.9502155,True,0.654
13,1,12,1,f,23,2022-05-04 15:57:03.882855,neutre_2_flat.0507.eq.wav,1,23,14281.50341712,-1.19598422,True,0.654
13,1,12,1,f,23,2022-05-04 15:57:03.882855,neutre_2_flat.0507.eq.wav,1,24,16519.90424416,3.73189858,True,0.654
13,1,12,1,f,23,2022-05-04 15:57:03.882855,neutre_2_flat.0507.eq.wav,1,25,19092.74669051,3.1389981,True,0.654
13,1,12,1,f,23,2022-05-04 15:57:03.882855,neutre_2_flat.0507.eq.wav,1,26,22050.0,-1.96245786,True,0.654
13,1,13,1,f,23,2022-05-04 15:57:03.882855,neutre_2_flat.0008.eq.wav,0,1,0.0,-2.81853106,False,0.95
13,1,13,1,f,23,2022-05-04 15:57:03.882855,neutre_2_flat.0008.eq.wav,0,2,104.5876729,1.54415589,False,0.95
13,1,13,1,f,23,2022-05-04 15:57:03.882855,neutre_2_flat.0008.eq.wav,0,3,224.80189054,3.94447834,False,0.95
13,1,13,1,f,23,2022-05-04 15:57:03.882855,neutre_2_flat.0008.eq.wav,0,4,362.97743001,0.03821626,False,0.95
13,1,13,1,f,23,2022-05-04 15:57:03.882855,neutre_2_flat.0008.eq.wav,0,5,521.79790965,-0.42515539,False,0.95
13,1,13,1,f,23,2022-05-04 15:57:03.882855,neutre_2_flat.0008.eq.wav,0,6,704.34790983,-3.47387784,False,0.95
13,1,13,1,f,23,2022-05-04 15:57:03.882855,neutre_2_flat.0008.eq.wav,0,7,914.17288101,1.91669411,False,0.95
13,1,13,1,f,23,2022-05-04 15:57:03.882855,neutre_2_flat.0008.eq.wav,0,8,1155.34800284,-3.29747436,False,0.95
13,1,13,1,f,23,2022-05-04 15:57:03.882855,neutre_2_flat.0008.eq.wav,0,9,1432.55733147,-2.39906711,False,0.95
13,1,13,1,f,23,2022-05-04 15:57:03.882855,neutre_2_flat.0008.eq.wav,0,10,1751.18477235,1.47192449,False,0.95
13,1,13,1,f,23,2022-05-04 15:57:03.882855,neutre_2_flat.0008.eq.wav,0,11,2117.41864548,4.54429874,False,0.95
13,1,13,1,f,23,2022-05-04 15:57:03.882855,neutre_2_flat.0008.eq.wav,0,12,2538.37187364,4.780234,False,0.95
13,1,13,1,f,23,2022-05-04 15:57:03.882855,neutre_2_flat.0008.eq.wav,0,13,3022.22012828,-0.03998401,False,0.95
13,1,13,1,f,23,2022-05-04 15:57:03.882855,neutre_2_flat.0008.eq.wav,0,14,3578.36061576,-1.87234452,False,0.95
13,1,13,1,f,23,2022-05-04 15:57:03.882855,neutre_2_flat.0008.eq.wav,0,15,4217.59458808,-1.92953835,False,0.95
13,1,13,1,f,23,2022-05-04 15:57:03.882855,neutre_2_flat.0008.eq.wav,0,16,4952.33712269,3.3420831,False,0.95
13,1,13,1,f,23,2022-05-04 15:57:03.882855,neutre_2_flat.0008.eq.wav,0,17,5796.8582457,2.37408048,False,0.95
13,1,13,1,f,23,2022-05-04 15:57:03.882855,neutre_2_flat.0008.eq.wav,0,18,6767.56008152,-3.05631194,False,0.95
13,1,13,1,f,23,2022-05-04 15:57:03.882855,neutre_2_flat.0008.eq.wav,0,19,7883.29541175,-1.63979214,False,0.95
13,1,13,1,f,23,2022-05-04 15:57:03.882855,neutre_2_flat.0008.eq.wav,0,20,9165.73383021,3.53343963,False,0.95
13,1,13,1,f,23,2022-05-04 15:57:03.882855,neutre_2_flat.0008.eq.wav,0,21,10639.78260555,-0.83941765,False,0.95
13,1,13,1,f,23,2022-05-04 15:57:03.882855,neutre_2_flat.0008.eq.wav,0,22,12334.07042541,-1.3489274,False,0.95
13,1,13,1,f,23,2022-05-04 15:57:03.882855,neutre_2_flat.0008.eq.wav,0,23,14281.50341712,1.55672065,False,0.95
13,1,13,1,f,23,2022-05-04 15:57:03.882855,neutre_2_flat.0008.eq.wav,0,24,16519.90424416,2.52855361,False,0.95
13,1,13,1,f,23,2022-05-04 15:57:03.882855,neutre_2_flat.0008.eq.wav,0,25,19092.74669051,4.30121767,False,0.95
13,1,13,1,f,23,2022-05-04 15:57:03.882855,neutre_2_flat.0008.eq.wav,0,26,22050.0,3.97241003,False,0.95
13,1,13,1,f,23,2022-05-04 15:57:03.882855,neutre_2_flat.0508.eq.wav,1,1,0.0,0.62867306,True,0.95
13,1,13,1,f,23,2022-05-04 15:57:03.882855,neutre_2_flat.0508.eq.wav,1,2,104.5876729,-1.3549189,True,0.95
13,1,13,1,f,23,2022-05-04 15:57:03.882855,neutre_2_flat.0508.eq.wav,1,3,224.80189054,0.80253468,True,0.95
13,1,13,1,f,23,2022-05-04 15:57:03.882855,neutre_2_flat.0508.eq.wav,1,4,362.97743001,-4.69391213,True,0.95
13,1,13,1,f,23,2022-05-04 15:57:03.882855,neutre_2_flat.0508.eq.wav,1,5,521.79790965,2.99098431,True,0.95
13,1,13,1,f,23,2022-05-04 15:57:03.882855,neutre_2_flat.0508.eq.wav,1,6,704.34790983,-2.97343976,True,0.95
13,1,13,1,f,23,2022-05-04 15:57:03.882855,neutre_2_flat.0508.eq.wav,1,7,914.17288101,-1.0990768,True,0.95
13,1,13,1,f,23,2022-05-04 15:57:03.882855,neutre_2_flat.0508.eq.wav,1,8,1155.34800284,-4.50967711,True,0.95
13,1,13,1,f,23,2022-05-04 15:57:03.882855,neutre_2_flat.0508.eq.wav,1,9,1432.55733147,0.74300685,True,0.95
13,1,13,1,f,23,2022-05-04 15:57:03.882855,neutre_2_flat.0508.eq.wav,1,10,1751.18477235,1.54514306,True,0.95
13,1,13,1,f,23,2022-05-04 15:57:03.882855,neutre_2_flat.0508.eq.wav,1,11,2117.41864548,3.3686622,True,0.95
13,1,13,1,f,23,2022-05-04 15:57:03.882855,neutre_2_flat.0508.eq.wav,1,12,2538.37187364,2.01236145,True,0.95
13,1,13,1,f,23,2022-05-04 15:57:03.882855,neutre_2_flat.0508.eq.wav,1,13,3022.22012828,0.4950415,True,0.95
13,1,13,1,f,23,2022-05-04 15:57:03.882855,neutre_2_flat.0508.eq.wav,1,14,3578.36061576,-4.07811916,True,0.95
13,1,13,1,f,23,2022-05-04 15:57:03.882855,neutre_2_flat.0508.eq.wav,1,15,4217.59458808,-2.04128488,True,0.95
13,1,13,1,f,23,2022-05-04 15:57:03.882855,neutre_2_flat.0508.eq.wav,1,16,4952.33712269,-3.7200931,True,0.95
13,1,13,1,f,23,2022-05-04 15:57:03.882855,neutre_2_flat.0508.eq.wav,1,17,5796.8582457,2.55302315,True,0.95
13,1,13,1,f,23,2022-05-04 15:57:03.882855,neutre_2_flat.0508.eq.wav,1,18,6767.56008152,-4.61199787,True,0.95
13,1,13,1,f,23,2022-05-04 15:57:03.882855,neutre_2_flat.0508.eq.wav,1,19,7883.29541175,4.46260048,True,0.95
13,1,13,1,f,23,2022-05-04 15:57:03.882855,neutre_2_flat.0508.eq.wav,1,20,9165.73383021,0.91803857,True,0.95
13,1,13,1,f,23,2022-05-04 15:57:03.882855,neutre_2_flat.0508.eq.wav,1,21,10639.78260555,-2.31758905,True,0.95
13,1,13,1,f,23,2022-05-04 15:57:03.882855,neutre_2_flat.0508.eq.wav,1,22,12334.07042541,2.85287061,True,0.95
13,1,13,1,f,23,2022-05-04 15:57:03.882855,neutre_2_flat.0508.eq.wav,1,23,14281.50341712,2.27770271,True,0.95
13,1,13,1,f,23,2022-05-04 15:57:03.882855,neutre_2_flat.0508.eq.wav,1,24,16519.90424416,0.27952825,True,0.95
13,1,13,1,f,23,2022-05-04 15:57:03.882855,neutre_2_flat.0508.eq.wav,1,25,19092.74669051,-4.09713909,True,0.95
13,1,13,1,f,23,2022-05-04 15:57:03.882855,neutre_2_flat.0508.eq.wav,1,26,22050.0,-0.81468474,True,0.95
13,1,14,1,f,23,2022-05-04 15:57:03.882855,neutre_2_flat.0009.eq.wav,0,1,0.0,-3.70013332,False,0.424
13,1,14,1,f,23,2022-05-04 15:57:03.882855,neutre_2_flat.0009.eq.wav,0,2,104.5876729,-2.50012853,False,0.424
13,1,14,1,f,23,2022-05-04 15:57:03.882855,neutre_2_flat.0009.eq.wav,0,3,224.80189054,-2.85844049,False,0.424
13,1,14,1,f,23,2022-05-04 15:57:03.882855,neutre_2_flat.0009.eq.wav,0,4,362.97743001,-1.20509142,False,0.424
13,1,14,1,f,23,2022-05-04 15:57:03.882855,neutre_2_flat.0009.eq.wav,0,5,521.79790965,0.00436812,False,0.424
13,1,14,1,f,23,2022-05-04 15:57:03.882855,neutre_2_flat.0009.eq.wav,0,6,704.34790983,-4.38501728,False,0.424
13,1,14,1,f,23,2022-05-04 15:57:03.882855,neutre_2_flat.0009.eq.wav,0,7,914.17288101,-0.83322236,False,0.424
13,1,14,1,f,23,2022-05-04 15:57:03.882855,neutre_2_flat.0009.eq.wav,0,8,1155.34800284,-4.16081395,False,0.424
13,1,14,1,f,23,2022-05-04 15:57:03.882855,neutre_2_flat.0009.eq.wav,0,9,1432.55733147,-1.90344189,False,0.424
13,1,14,1,f,23,2022-05-04 15:57:03.882855,neutre_2_flat.0009.eq.wav,0,10,1751.18477235,0.11205523,False,0.424
13,1,14,1,f,23,2022-05-04 15:57:03.882855,neutre_2_flat.0009.eq.wav,0,11,2117.41864548,-0.31955032,False,0.424
13,1,14,1,f,23,2022-05-04 15:57:03.882855,neutre_2_flat.0009.eq.wav,0,12,2538.37187364,-0.0031765,False,0.424
13,1,14,1,f,23,2022-05-04 15:57:03.882855,neutre_2_flat.0009.eq.wav,0,13,3022.22012828,1.24226032,False,0.424
13,1,14,1,f,23,2022-05-04 15:57:03.882855,neutre_2_flat.0009.eq.wav,0,14,3578.36061576,-3.04324954,False,0.424
13,1,14,1,f,23,2022-05-04 15:57:03.882855,neutre_2_flat.0009.eq.wav,0,15,4217.59458808,2.46853207,False,0.424
13,1,14,1,f,23,2022-05-04 15:57:03.882855,neutre_2_flat.0009.eq.wav,0,16,4952.33712269,-2.6359195,False,0.424
13,1,14,1,f,23,2022-05-04 15:57:03.882855,neutre_2_flat.0009.eq.wav,0,17,5796.8582457,1.91564009,False,0.424
13,1,14,1,f,23,2022-05-04 15:57:03.882855,neutre_2_flat.0009.eq.wav,0,18,6767.56008152,3.38020131,False,0.424
13,1,14,1,f,23,2022-05-04 15:57:03.882855,neutre_2_flat.0009.eq.wav,0,19,7883.29541175,-1.64669581,False,0.424
13,1,14,1,f,23,2022-05-04 15:57:03.882855,neutre_2_flat.0009.eq.wav,0,20,9165.73383021,-1.74859976,False,0.424
13,1,14,1,f,23,2022-05-04 15:57:03.882855,neutre_2_flat.0009.eq.wav,0,21,10639.78260555,-4.34109984,False,0.424
13,1,14,1,f,23,2022-05-04 15:57:03.882855,neutre_2_flat.0009.eq.wav,0,22,12334.07042541,-2.06696952,False,0.424
13,1,14,1,f,23,2022-05-04 15:57:03.882855,neutre_2_flat.0009.eq.wav,0,23,14281.50341712,3.72502456,False,0.424
13,1,14,1,f,23,2022-05-04 15:57:03.882855,neutre_2_flat.0009.eq.wav,0,24,16519.90424416,-4.06746893,False,0.424
13,1,14,1,f,23,2022-05-04 15:57:03.882855,neutre_2_flat.0009.eq.wav,0,25,19092.74669051,0.48810833,False,0.424
13,1,14,1,f,23,2022-05-04 15:57:03.882855,neutre_2_flat.0009.eq.wav,0,26,22050.0,4.74118728,False,0.424
13,1,14,1,f,23,2022-05-04 15:57:03.882855,neutre_2_flat.0509.eq.wav,1,1,0.0,0.4908423,True,0.424
13,1,14,1,f,23,2022-05-04 15:57:03.882855,neutre_2_flat.0509.eq.wav,1,2,104.5876729,-1.63860869,True,0.424
13,1,14,1,f,23,2022-05-04 15:57:03.882855,neutre_2_flat.0509.eq.wav,1,3,224.80189054,-2.54123246,True,0.424
13,1,14,1,f,23,2022-05-04 15:57:03.882855,neutre_2_flat.0509.eq.wav,1,4,362.97743001,0.07503398,True,0.424
13,1,14,1,f,23,2022-05-04 15:57:03.882855,neutre_2_flat.0509.eq.wav,1,5,521.79790965,1.58247469,True,0.424
13,1,14,1,f,23,2022-05-04 15:57:03.882855,neutre_2_flat.0509.eq.wav,1,6,704.34790983,-0.8585021,True,0.424
13,1,14,1,f,23,2022-05-04 15:57:03.882855,neutre_2_flat.0509.eq.wav,1,7,914.17288101,-3.78321681,True,0.424
13,1,14,1,f,23,2022-05-04 15:57:03.882855,neutre_2_flat.0509.eq.wav,1,8,1155.34800284,-0.96837895,True,0.424
13,1,14,1,f,23,2022-05-04 15:57:03.882855,neutre_2_flat.0509.eq.wav,1,9,1432.55733147,-3.53677169,True,0.424
13,1,14,1,f,23,2022-05-04 15:57:03.882855,neutre_2_flat.0509.eq.wav,1,10,1751.18477235,2.6370489,True,0.424
13,1,14,1,f,23,2022-05-04 15:57:03.882855,neutre_2_flat.0509.eq.wav,1,11,2117.41864548,-2.6321417,True,0.424
13,1,14,1,f,23,2022-05-04 15:57:03.882855,neutre_2_flat.0509.eq.wav,1,12,2538.37187364,-3.2593305,True,0.424
13,1,14,1,f,23,2022-05-04 15:57:03.882855,neutre_2_flat.0509.eq.wav,1,13,3022.22012828,-3.8607931,True,0.424
13,1,14,1,f,23,2022-05-04 15:57:03.882855,neutre_2_flat.0509.eq.wav,1,14,3578.36061576,-0.87093528,True,0.424
13,1,14,1,f,23,2022-05-04 15:57:03.882855,neutre_2_flat.0509.eq.wav,1,15,4217.59458808,4.11414338,True,0.424
13,1,14,1,f,23,2022-05-04 15:57:03.882855,neutre_2_flat.0509.eq.wav,1,16,4952.33712269,-3.90695995,True,0.424
13,1,14,1,f,23,2022-05-04 15:57:03.882855,neutre_2_flat.0509.eq.wav,1,17,5796.8582457,-1.28429504,True,0.424
13,1,14,1,f,23,2022-05-04 15:57:03.882855,neutre_2_flat.0509.eq.wav,1,18,6767.56008152,-3.98809994,True,0.424
13,1,14,1,f,23,2022-05-04 15:57:03.882855,neutre_2_flat.0509.eq.wav,1,19,7883.29541175,1.82080413,True,0.424
13,1,14,1,f,23,2022-05-04 15:57:03.882855,neutre_2_flat.0509.eq.wav,1,20,9165.73383021,4.91043949,True,0.424
13,1,14,1,f,23,2022-05-04 15:57:03.882855,neutre_2_flat.0509.eq.wav,1,21,10639.78260555,2.65545761,True,0.424
13,1,14,1,f,23,2022-05-04 15:57:03.882855,neutre_2_flat.0509.eq.wav,1,22,12334.07042541,3.72067223,True,0.424
13,1,14,1,f,23,2022-05-04 15:57:03.882855,neutre_2_flat.0509.eq.wav,1,23,14281.50341712,4.57699557,True,0.424
13,1,14,1,f,23,2022-05-04 15:57:03.882855,neutre_2_flat.0509.eq.wav,1,24,16519.90424416,-4.35073687,True,0.424
13,1,14,1,f,23,2022-05-04 15:57:03.882855,neutre_2_flat.0509.eq.wav,1,25,19092.74669051,-3.67862417,True,0.424
13,1,14,1,f,23,2022-05-04 15:57:03.882855,neutre_2_flat.0509.eq.wav,1,26,22050.0,-1.92422174,True,0.424
13,1,15,1,f,23,2022-05-04 15:57:03.882855,neutre_2_flat.0010.eq.wav,0,1,0.0,3.12287617,True,0.717
13,1,15,1,f,23,2022-05-04 15:57:03.882855,neutre_2_flat.0010.eq.wav,0,2,104.5876729,-2.2536421,True,0.717
13,1,15,1,f,23,2022-05-04 15:57:03.882855,neutre_2_flat.0010.eq.wav,0,3,224.80189054,4.99208692,True,0.717
13,1,15,1,f,23,2022-05-04 15:57:03.882855,neutre_2_flat.0010.eq.wav,0,4,362.97743001,-1.90843879,True,0.717
13,1,15,1,f,23,2022-05-04 15:57:03.882855,neutre_2_flat.0010.eq.wav,0,5,521.79790965,3.37354325,True,0.717
13,1,15,1,f,23,2022-05-04 15:57:03.882855,neutre_2_flat.0010.eq.wav,0,6,704.34790983,-0.36474085,True,0.717
13,1,15,1,f,23,2022-05-04 15:57:03.882855,neutre_2_flat.0010.eq.wav,0,7,914.17288101,-2.05486324,True,0.717
13,1,15,1,f,23,2022-05-04 15:57:03.882855,neutre_2_flat.0010.eq.wav,0,8,1155.34800284,0.06066999,True,0.717
13,1,15,1,f,23,2022-05-04 15:57:03.882855,neutre_2_flat.0010.eq.wav,0,9,1432.55733147,-4.74519689,True,0.717
13,1,15,1,f,23,2022-05-04 15:57:03.882855,neutre_2_flat.0010.eq.wav,0,10,1751.18477235,-0.97630357,True,0.717
13,1,15,1,f,23,2022-05-04 15:57:03.882855,neutre_2_flat.0010.eq.wav,0,11,2117.41864548,4.30028165,True,0.717
13,1,15,1,f,23,2022-05-04 15:57:03.882855,neutre_2_flat.0010.eq.wav,0,12,2538.37187364,-3.93010839,True,0.717
13,1,15,1,f,23,2022-05-04 15:57:03.882855,neutre_2_flat.0010.eq.wav,0,13,3022.22012828,2.74794884,True,0.717
13,1,15,1,f,23,2022-05-04 15:57:03.882855,neutre_2_flat.0010.eq.wav,0,14,3578.36061576,0.87391297,True,0.717
13,1,15,1,f,23,2022-05-04 15:57:03.882855,neutre_2_flat.0010.eq.wav,0,15,4217.59458808,2.82191137,True,0.717
13,1,15,1,f,23,2022-05-04 15:57:03.882855,neutre_2_flat.0010.eq.wav,0,16,4952.33712269,2.3484316,True,0.717
13,1,15,1,f,23,2022-05-04 15:57:03.882855,neutre_2_flat.0010.eq.wav,0,17,5796.8582457,3.80195816,True,0.717
13,1,15,1,f,23,2022-05-04 15:57:03.882855,neutre_2_flat.0010.eq.wav,0,18,6767.56008152,1.76034261,True,0.717
13,1,15,1,f,23,2022-05-04 15:57:03.882855,neutre_2_flat.0010.eq.wav,0,19,7883.29541175,0.8729359,True,0.717
13,1,15,1,f,23,2022-05-04 15:57:03.882855,neutre_2_flat.0010.eq.wav,0,20,9165.73383021,-1.75047265,True,0.717
13,1,15,1,f,23,2022-05-04 15:57:03.882855,neutre_2_flat.0010.eq.wav,0,21,10639.78260555,4.19283789,True,0.717
13,1,15,1,f,23,2022-05-04 15:57:03.882855,neutre_2_flat.0010.eq.wav,0,22,12334.07042541,3.50588892,True,0.717
13,1,15,1,f,23,2022-05-04 15:57:03.882855,neutre_2_flat.0010.eq.wav,0,23,14281.50341712,-4.30994919,True,0.717
13,1,15,1,f,23,2022-05-04 15:57:03.882855,neutre_2_flat.0010.eq.wav,0,24,16519.90424416,1.37087774,True,0.717
13,1,15,1,f,23,2022-05-04 15:57:03.882855,neutre_2_flat.0010.eq.wav,0,25,19092.74669051,0.04903211,True,0.717
13,1,15,1,f,23,2022-05-04 15:57:03.882855,neutre_2_flat.0010.eq.wav,0,26,22050.0,0.85134985,True,0.717
13,1,15,1,f,23,2022-05-04 15:57:03.882855,neutre_2_flat.0510.eq.wav,1,1,0.0,0.89370838,False,0.717
13,1,15,1,f,23,2022-05-04 15:57:03.882855,neutre_2_flat.0510.eq.wav,1,2,104.5876729,-2.59719154,False,0.717
13,1,15,1,f,23,2022-05-04 15:57:03.882855,neutre_2_flat.0510.eq.wav,1,3,224.80189054,3.98990256,False,0.717
13,1,15,1,f,23,2022-05-04 15:57:03.882855,neutre_2_flat.0510.eq.wav,1,4,362.97743001,1.0861244,False,0.717
13,1,15,1,f,23,2022-05-04 15:57:03.882855,neutre_2_flat.0510.eq.wav,1,5,521.79790965,4.12854655,False,0.717
13,1,15,1,f,23,2022-05-04 15:57:03.882855,neutre_2_flat.0510.eq.wav,1,6,704.34790983,-2.62841842,False,0.717
13,1,15,1,f,23,2022-05-04 15:57:03.882855,neutre_2_flat.0510.eq.wav,1,7,914.17288101,4.56850105,False,0.717
13,1,15,1,f,23,2022-05-04 15:57:03.882855,neutre_2_flat.0510.eq.wav,1,8,1155.34800284,-3.97368679,False,0.717
13,1,15,1,f,23,2022-05-04 15:57:03.882855,neutre_2_flat.0510.eq.wav,1,9,1432.55733147,4.38807841,False,0.717
13,1,15,1,f,23,2022-05-04 15:57:03.882855,neutre_2_flat.0510.eq.wav,1,10,1751.18477235,1.92503684,False,0.717
13,1,15,1,f,23,2022-05-04 15:57:03.882855,neutre_2_flat.0510.eq.wav,1,11,2117.41864548,-4.70669492,False,0.717
13,1,15,1,f,23,2022-05-04 15:57:03.882855,neutre_2_flat.0510.eq.wav,1,12,2538.37187364,-2.60547974,False,0.717
13,1,15,1,f,23,2022-05-04 15:57:03.882855,neutre_2_flat.0510.eq.wav,1,13,3022.22012828,0.24487126,False,0.717
13,1,15,1,f,23,2022-05-04 15:57:03.882855,neutre_2_flat.0510.eq.wav,1,14,3578.36061576,-0.07273326,False,0.717
13,1,15,1,f,23,2022-05-04 15:57:03.882855,neutre_2_flat.0510.eq.wav,1,15,4217.59458808,3.38427463,False,0.717
13,1,15,1,f,23,2022-05-04 15:57:03.882855,neutre_2_flat.0510.eq.wav,1,16,4952.33712269,-4.85877912,False,0.717
13,1,15,1,f,23,2022-05-04 15:57:03.882855,neutre_2_flat.0510.eq.wav,1,17,5796.8582457,-4.08751916,False,0.717
13,1,15,1,f,23,2022-05-04 15:57:03.882855,neutre_2_flat.0510.eq.wav,1,18,6767.56008152,1.0163207,False,0.717
13,1,15,1,f,23,2022-05-04 15:57:03.882855,neutre_2_flat.0510.eq.wav,1,19,7883.29541175,-1.81519748,False,0.717
13,1,15,1,f,23,2022-05-04 15:57:03.882855,neutre_2_flat.0510.eq.wav,1,20,9165.73383021,-1.41459265,False,0.717
13,1,15,1,f,23,2022-05-04 15:57:03.882855,neutre_2_flat.0510.eq.wav,1,21,10639.78260555,-2.06091305,False,0.717
13,1,15,1,f,23,2022-05-04 15:57:03.882855,neutre_2_flat.0510.eq.wav,1,22,12334.07042541,2.13397887,False,0.717
13,1,15,1,f,23,2022-05-04 15:57:03.882855,neutre_2_flat.0510.eq.wav,1,23,14281.50341712,3.14673788,False,0.717
13,1,15,1,f,23,2022-05-04 15:57:03.882855,neutre_2_flat.0510.eq.wav,1,24,16519.90424416,-2.39958718,False,0.717
13,1,15,1,f,23,2022-05-04 15:57:03.882855,neutre_2_flat.0510.eq.wav,1,25,19092.74669051,-1.20558117,False,0.717
13,1,15,1,f,23,2022-05-04 15:57:03.882855,neutre_2_flat.0510.eq.wav,1,26,22050.0,-4.20093502,False,0.717
13,1,16,1,f,23,2022-05-04 15:57:03.882855,neutre_2_flat.0011.eq.wav,0,1,0.0,-2.34643752,True,0.681
13,1,16,1,f,23,2022-05-04 15:57:03.882855,neutre_2_flat.0011.eq.wav,0,2,104.5876729,-0.91456787,True,0.681
13,1,16,1,f,23,2022-05-04 15:57:03.882855,neutre_2_flat.0011.eq.wav,0,3,224.80189054,1.97488695,True,0.681
13,1,16,1,f,23,2022-05-04 15:57:03.882855,neutre_2_flat.0011.eq.wav,0,4,362.97743001,-0.65086087,True,0.681
13,1,16,1,f,23,2022-05-04 15:57:03.882855,neutre_2_flat.0011.eq.wav,0,5,521.79790965,1.59339657,True,0.681
13,1,16,1,f,23,2022-05-04 15:57:03.882855,neutre_2_flat.0011.eq.wav,0,6,704.34790983,-4.45568094,True,0.681
13,1,16,1,f,23,2022-05-04 15:57:03.882855,neutre_2_flat.0011.eq.wav,0,7,914.17288101,-1.99568706,True,0.681
13,1,16,1,f,23,2022-05-04 15:57:03.882855,neutre_2_flat.0011.eq.wav,0,8,1155.34800284,4.01977558,True,0.681
13,1,16,1,f,23,2022-05-04 15:57:03.882855,neutre_2_flat.0011.eq.wav,0,9,1432.55733147,1.2674841,True,0.681
13,1,16,1,f,23,2022-05-04 15:57:03.882855,neutre_2_flat.0011.eq.wav,0,10,1751.18477235,2.54791273,True,0.681
13,1,16,1,f,23,2022-05-04 15:57:03.882855,neutre_2_flat.0011.eq.wav,0,11,2117.41864548,-1.99898575,True,0.681
13,1,16,1,f,23,2022-05-04 15:57:03.882855,neutre_2_flat.0011.eq.wav,0,12,2538.37187364,-2.80323453,True,0.681
13,1,16,1,f,23,2022-05-04 15:57:03.882855,neutre_2_flat.0011.eq.wav,0,13,3022.22012828,-4.38073675,True,0.681
13,1,16,1,f,23,2022-05-04 15:57:03.882855,neutre_2_flat.0011.eq.wav,0,14,3578.36061576,2.84630692,True,0.681
13,1,16,1,f,23,2022-05-04 15:57:03.882855,neutre_2_flat.0011.eq.wav,0,15,4217.59458808,-3.48906808,True,0.681
13,1,16,1,f,23,2022-05-04 15:57:03.882855,neutre_2_flat.0011.eq.wav,0,16,4952.33712269,-1.50094147,True,0.681
13,1,16,1,f,23,2022-05-04 15:57:03.882855,neutre_2_flat.0011.eq.wav,0,17,5796.8582457,1.10115731,True,0.681
13,1,16,1,f,23,2022-05-04 15:57:03.882855,neutre_2_flat.0011.eq.wav,0,18,6767.56008152,-2.63497793,True,0.681
13,1,16,1,f,23,2022-05-04 15:57:03.882855,neutre_2_flat.0011.eq.wav,0,19,7883.29541175,-1.05588111,True,0.681
13,1,16,1,f,23,2022-05-04 15:57:03.882855,neutre_2_flat.0011.eq.wav,0,20,9165.73383021,3.17703338,True,0.681
13,1,16,1,f,23,2022-05-04 15:57:03.882855,neutre_2_flat.0011.eq.wav,0,21,10639.78260555,-4.2641016,True,0.681
13,1,16,1,f,23,2022-05-04 15:57:03.882855,neutre_2_flat.0011.eq.wav,0,22,12334.07042541,0.99709277,True,0.681
13,1,16,1,f,23,2022-05-04 15:57:03.882855,neutre_2_flat.0011.eq.wav,0,23,14281.50341712,-1.24370857,True,0.681
13,1,16,1,f,23,2022-05-04 15:57:03.882855,neutre_2_flat.0011.eq.wav,0,24,16519.90424416,2.61647552,True,0.681
13,1,16,1,f,23,2022-05-04 15:57:03.882855,neutre_2_flat.0011.eq.wav,0,25,19092.74669051,-3.65210427,True,0.681
13,1,16,1,f,23,2022-05-04 15:57:03.882855,neutre_2_flat.0011.eq.wav,0,26,22050.0,0.56659844,True,0.681
13,1,16,1,f,23,2022-05-04 15:57:03.882855,neutre_2_flat.0511.eq.wav,1,1,0.0,0.56123665,False,0.681
13,1,16,1,f,23,2022-05-04 15:57:03.882855,neutre_2_flat.0511.eq.wav,1,2,104.5876729,-2.73844151,False,0.681
13,1,16,1,f,23,2022-05-04 15:57:03.882855,neutre_2_flat.0511.eq.wav,1,3,224.80189054,3.865263,False,0.681
13,1,16,1,f,23,2022-05-04 15:57:03.882855,neutre_2_flat.0511.eq.wav,1,4,362.97743001,-1.04198252,False,0.681
13,1,16,1,f,23,2022-05-04 15:57:03.882855,neutre_2_flat.0511.eq.wav,1,5,521.79790965,-1.14973573,False,0.681
13,1,16,1,f,23,2022-05-04 15:57:03.882855,neutre_2_flat.0511.eq.wav,1,6,704.34790983,2.12088553,False,0.681
13,1,16,1,f,23,2022-05-04 15:57:03.882855,neutre_2_flat.0511.eq.wav,1,7,914.17288101,2.21218983,False,0.681
13,1,16,1,f,23,2022-05-04 15:57:03.882855,neutre_2_flat.0511.eq.wav,1,8,1155.34800284,-3.52881679,False,0.681
13,1,16,1,f,23,2022-05-04 15:57:03.882855,neutre_2_flat.0511.eq.wav,1,9,1432.55733147,-1.02690378,False,0.681
13,1,16,1,f,23,2022-05-04 15:57:03.882855,neutre_2_flat.0511.eq.wav,1,10,1751.18477235,-0.41096635,False,0.681
13,1,16,1,f,23,2022-05-04 15:57:03.882855,neutre_2_flat.0511.eq.wav,1,11,2117.41864548,1.22942895,False,0.681
13,1,16,1,f,23,2022-05-04 15:57:03.882855,neutre_2_flat.0511.eq.wav,1,12,2538.37187364,2.29845426,False,0.681
13,1,16,1,f,23,2022-05-04 15:57:03.882855,neutre_2_flat.0511.eq.wav,1,13,3022.22012828,-2.8810943,False,0.681
13,1,16,1,f,23,2022-05-04 15:57:03.882855,neutre_2_flat.0511.eq.wav,1,14,3578.36061576,0.5140267,False,0.681
13,1,16,1,f,23,2022-05-04 15:57:03.882855,neutre_2_flat.0511.eq.wav,1,15,4217.59458808,1.3804729,False,0.681
13,1,16,1,f,23,2022-05-04 15:57:03.882855,neutre_2_flat.0511.eq.wav,1,16,4952.33712269,-1.45793037,False,0.681
13,1,16,1,f,23,2022-05-04 15:57:03.882855,neutre_2_flat.0511.eq.wav,1,17,5796.8582457,-0.19519444,False,0.681
13,1,16,1,f,23,2022-05-04 15:57:03.882855,neutre_2_flat.0511.eq.wav,1,18,6767.56008152,-3.44304904,False,0.681
13,1,16,1,f,23,2022-05-04 15:57:03.882855,neutre_2_flat.0511.eq.wav,1,19,7883.29541175,1.32373274,False,0.681
13,1,16,1,f,23,2022-05-04 15:57:03.882855,neutre_2_flat.0511.eq.wav,1,20,9165.73383021,2.98419914,False,0.681
13,1,16,1,f,23,2022-05-04 15:57:03.882855,neutre_2_flat.0511.eq.wav,1,21,10639.78260555,-2.10732976,False,0.681
13,1,16,1,f,23,2022-05-04 15:57:03.882855,neutre_2_flat.0511.eq.wav,1,22,12334.07042541,-1.09372835,False,0.681
13,1,16,1,f,23,2022-05-04 15:57:03.882855,neutre_2_flat.0511.eq.wav,1,23,14281.50341712,-1.29017965,False,0.681
13,1,16,1,f,23,2022-05-04 15:57:03.882855,neutre_2_flat.0511.eq.wav,1,24,16519.90424416,-0.02135392,False,0.681
13,1,16,1,f,23,2022-05-04 15:57:03.882855,neutre_2_flat.0511.eq.wav,1,25,19092.74669051,0.76469342,False,0.681
13,1,16,1,f,23,2022-05-04 15:57:03.882855,neutre_2_flat.0511.eq.wav,1,26,22050.0,-1.76056942,False,0.681
13,1,17,1,f,23,2022-05-04 15:57:03.882855,neutre_2_flat.0012.eq.wav,0,1,0.0,1.35187729,True,1.275
13,1,17,1,f,23,2022-05-04 15:57:03.882855,neutre_2_flat.0012.eq.wav,0,2,104.5876729,-2.08380727,True,1.275
13,1,17,1,f,23,2022-05-04 15:57:03.882855,neutre_2_flat.0012.eq.wav,0,3,224.80189054,3.42985357,True,1.275
13,1,17,1,f,23,2022-05-04 15:57:03.882855,neutre_2_flat.0012.eq.wav,0,4,362.97743001,3.02972972,True,1.275
13,1,17,1,f,23,2022-05-04 15:57:03.882855,neutre_2_flat.0012.eq.wav,0,5,521.79790965,-2.1831624,True,1.275
13,1,17,1,f,23,2022-05-04 15:57:03.882855,neutre_2_flat.0012.eq.wav,0,6,704.34790983,-2.99389644,True,1.275
13,1,17,1,f,23,2022-05-04 15:57:03.882855,neutre_2_flat.0012.eq.wav,0,7,914.17288101,-1.48632656,True,1.275
13,1,17,1,f,23,2022-05-04 15:57:03.882855,neutre_2_flat.0012.eq.wav,0,8,1155.34800284,0.24627881,True,1.275
13,1,17,1,f,23,2022-05-04 15:57:03.882855,neutre_2_flat.0012.eq.wav,0,9,1432.55733147,4.75275109,True,1.275
13,1,17,1,f,23,2022-05-04 15:57:03.882855,neutre_2_flat.0012.eq.wav,0,10,1751.18477235,0.89906459,True,1.275
13,1,17,1,f,23,2022-05-04 15:57:03.882855,neutre_2_flat.0012.eq.wav,0,11,2117.41864548,1.74192586,True,1.275
13,1,17,1,f,23,2022-05-04 15:57:03.882855,neutre_2_flat.0012.eq.wav,0,12,2538.37187364,1.12015001,True,1.275
13,1,17,1,f,23,2022-05-04 15:57:03.882855,neutre_2_flat.0012.eq.wav,0,13,3022.22012828,1.32816295,True,1.275
13,1,17,1,f,23,2022-05-04 15:57:03.882855,neutre_2_flat.0012.eq.wav,0,14,3578.36061576,-3.90409549,True,1.275
