subj,session,trial,block,sex,age,date,stim,stim_order,filter,filter_freq,filter_gain,response,rt
2,1,0,0,m,82,2020-07-22 11:04:05.116739,Sub2_Trial261_1.wav,0,0,100,0.1860597293959988,False,13.431
2,1,0,0,m,82,2020-07-22 11:04:05.116739,Sub2_Trial261_1.wav,0,1,191,-0.2997042887857353,False,13.431
2,1,0,0,m,82,2020-07-22 11:04:05.116739,Sub2_Trial261_1.wav,0,2,293,2.9590820323015308,False,13.431
2,1,0,0,m,82,2020-07-22 11:04:05.116739,Sub2_Trial261_1.wav,0,3,406,3.848889658247436,False,13.431
2,1,0,0,m,82,2020-07-22 11:04:05.116739,Sub2_Trial261_1.wav,0,4,533,3.4671538714999004,False,13.431
2,1,0,0,m,82,2020-07-22 11:04:05.116739,Sub2_Trial261_1.wav,0,5,673,2.7962937488209203,False,13.431
2,1,0,0,m,82,2020-07-22 11:04:05.116739,Sub2_Trial261_1.wav,0,6,830,-6.2517378607437895,False,13.431
2,1,0,0,m,82,2020-07-22 11:04:05.116739,Sub2_Trial261_1.wav,0,7,1004,4.22825816040292,False,13.431
2,1,0,0,m,82,2020-07-22 11:04:05.116739,Sub2_Trial261_1.wav,0,8,1199,-5.224703343726369,False,13.431
2,1,0,0,m,82,2020-07-22 11:04:05.116739,Sub2_Trial261_1.wav,0,9,1416,2.52800272392633,False,13.431
2,1,0,0,m,82,2020-07-22 11:04:05.116739,Sub2_Trial261_1.wav,0,10,1657,10.708722418054125,False,13.431
2,1,0,0,m,82,2020-07-22 11:04:05.116739,Sub2_Trial261_1.wav,0,11,1926,3.4961432069012273,False,13.431
2,1,0,0,m,82,2020-07-22 11:04:05.116739,Sub2_Trial261_1.wav,0,12,2226,-2.0841522479837336,False,13.431
2,1,0,0,m,82,2020-07-22 11:04:05.116739,Sub2_Trial261_1.wav,0,13,2560,-0.46781702032837036,False,13.431
2,1,0,0,m,82,2020-07-22 11:04:05.116739,Sub2_Trial261_1.wav,0,14,2932,-3.5260926747652546,False,13.431
2,1,0,0,m,82,2020-07-22 11:04:05.116739,Sub2_Trial261_1.wav,0,15,3346,-10.777857763899394,False,13.431
2,1,0,0,m,82,2020-07-22 11:04:05.116739,Sub2_Trial261_1.wav,0,16,3808,7.590159801412607,False,13.431
2,1,0,0,m,82,2020-07-22 11:04:05.116739,Sub2_Trial261_1.wav,0,17,4322,-2.269859932611798,False,13.431
2,1,0,0,m,82,2020-07-22 11:04:05.116739,Sub2_Trial261_1.wav,0,18,4895,-3.439440181322628,False,13.431
2,1,0,0,m,82,2020-07-22 11:04:05.116739,Sub2_Trial261_1.wav,0,19,5534,-1.2102658846026197,False,13.431
2,1,0,0,m,82,2020-07-22 11:04:05.116739,Sub2_Trial261_1.wav,0,20,6245,-10.95015462026688,False,13.431
2,1,0,0,m,82,2020-07-22 11:04:05.116739,Sub2_Trial261_1.wav,0,21,7037,0.8468116805037937,False,13.431
2,1,0,0,m,82,2020-07-22 11:04:05.116739,Sub2_Trial261_1.wav,0,22,7920,-1.4526895819045862,False,13.431
2,1,0,0,m,82,2020-07-22 11:04:05.116739,Sub2_Trial261_1.wav,0,23,8904,3.2362542140424,False,13.431
2,1,0,0,m,82,2020-07-22 11:04:05.116739,Sub2_Trial261_1.wav,0,24,10000,-7.831505425316325,False,13.431
2,1,0,0,m,82,2020-07-22 11:04:05.116739,Sub2_Trial63_1.wav,1,0,100,-6.716996610178182,True,13.431
2,1,0,0,m,82,2020-07-22 11:04:05.116739,Sub2_Trial63_1.wav,1,1,191,4.70724103603335,True,13.431
2,1,0,0,m,82,2020-07-22 11:04:05.116739,Sub2_Trial63_1.wav,1,2,293,0.9933775313845283,True,13.431
2,1,0,0,m,82,2020-07-22 11:04:05.116739,Sub2_Trial63_1.wav,1,3,406,5.269306263552319,True,13.431
2,1,0,0,m,82,2020-07-22 11:04:05.116739,Sub2_Trial63_1.wav,1,4,533,0.8913117915643093,True,13.431
2,1,0,0,m,82,2020-07-22 11:04:05.116739,Sub2_Trial63_1.wav,1,5,673,-7.6276198094059176,True,13.431
2,1,0,0,m,82,2020-07-22 11:04:05.116739,Sub2_Trial63_1.wav,1,6,830,-0.45378067595712235,True,13.431
2,1,0,0,m,82,2020-07-22 11:04:05.116739,Sub2_Trial63_1.wav,1,7,1004,-0.2963678183726595,True,13.431
2,1,0,0,m,82,2020-07-22 11:04:05.116739,Sub2_Trial63_1.wav,1,8,1199,-2.2104419914325506,True,13.431
2,1,0,0,m,82,2020-07-22 11:04:05.116739,Sub2_Trial63_1.wav,1,9,1416,-0.09107027957906547,True,13.431
2,1,0,0,m,82,2020-07-22 11:04:05.116739,Sub2_Trial63_1.wav,1,10,1657,-7.450689700910913,True,13.431
2,1,0,0,m,82,2020-07-22 11:04:05.116739,Sub2_Trial63_1.wav,1,11,1926,-1.6927199508023463,True,13.431
2,1,0,0,m,82,2020-07-22 11:04:05.116739,Sub2_Trial63_1.wav,1,12,2226,5.5877268468746335,True,13.431
2,1,0,0,m,82,2020-07-22 11:04:05.116739,Sub2_Trial63_1.wav,1,13,2560,-4.597212459481559,True,13.431
2,1,0,0,m,82,2020-07-22 11:04:05.116739,Sub2_Trial63_1.wav,1,14,2932,5.489179007245809,True,13.431
2,1,0,0,m,82,2020-07-22 11:04:05.116739,Sub2_Trial63_1.wav,1,15,3346,-0.0027827783572163386,True,13.431
2,1,0,0,m,82,2020-07-22 11:04:05.116739,Sub2_Trial63_1.wav,1,16,3808,3.254700097865416,True,13.431
2,1,0,0,m,82,2020-07-22 11:04:05.116739,Sub2_Trial63_1.wav,1,17,4322,-5.627365156389424,True,13.431
2,1,0,0,m,82,2020-07-22 11:04:05.116739,Sub2_Trial63_1.wav,1,18,4895,-0.23293177725361847,True,13.431
2,1,0,0,m,82,2020-07-22 11:04:05.116739,Sub2_Trial63_1.wav,1,19,5534,-7.7674325246481875,True,13.431
2,1,0,0,m,82,2020-07-22 11:04:05.116739,Sub2_Trial63_1.wav,1,20,6245,-3.117064804908039,True,13.431
2,1,0,0,m,82,2020-07-22 11:04:05.116739,Sub2_Trial63_1.wav,1,21,7037,-3.1256884453435223,True,13.431
2,1,0,0,m,82,2020-07-22 11:04:05.116739,Sub2_Trial63_1.wav,1,22,7920,-6.170703214894675,True,13.431
2,1,0,0,m,82,2020-07-22 11:04:05.116739,Sub2_Trial63_1.wav,1,23,8904,3.813257850361552,True,13.431
2,1,0,0,m,82,2020-07-22 11:04:05.116739,Sub2_Trial63_1.wav,1,24,10000,3.7056689541326273,True,13.431
2,1,1,0,m,82,2020-07-22 11:04:05.116739,Sub2_Trial91_1.wav,0,0,100,2.3849958561856512,True,12.654
2,1,1,0,m,82,2020-07-22 11:04:05.116739,Sub2_Trial91_1.wav,0,1,191,4.899366597487051,True,12.654
2,1,1,0,m,82,2020-07-22 11:04:05.116739,Sub2_Trial91_1.wav,0,2,293,2.2589331189987356,True,12.654
2,1,1,0,m,82,2020-07-22 11:04:05.116739,Sub2_Trial91_1.wav,0,3,406,-8.234644201549981,True,12.654
2,1,1,0,m,82,2020-07-22 11:04:05.116739,Sub2_Trial91_1.wav,0,4,533,-3.5843008699035668,True,12.654
2,1,1,0,m,82,2020-07-22 11:04:05.116739,Sub2_Trial91_1.wav,0,5,673,5.313771218245476,True,12.654
2,1,1,0,m,82,2020-07-22 11:04:05.116739,Sub2_Trial91_1.wav,0,6,830,-1.1809734580415938,True,12.654
2,1,1,0,m,82,2020-07-22 11:04:05.116739,Sub2_Trial91_1.wav,0,7,1004,-2.3437384439813034,True,12.654
2,1,1,0,m,82,2020-07-22 11:04:05.116739,Sub2_Trial91_1.wav,0,8,1199,2.114265368266954,True,12.654
2,1,1,0,m,82,2020-07-22 11:04:05.116739,Sub2_Trial91_1.wav,0,9,1416,-2.820778641718092,True,12.654
2,1,1,0,m,82,2020-07-22 11:04:05.116739,Sub2_Trial91_1.wav,0,10,1657,-1.9432159722820699,True,12.654
2,1,1,0,m,82,2020-07-22 11:04:05.116739,Sub2_Trial91_1.wav,0,11,1926,3.7818502858239866,True,12.654
2,1,1,0,m,82,2020-07-22 11:04:05.116739,Sub2_Trial91_1.wav,0,12,2226,10.943588363525961,True,12.654
2,1,1,0,m,82,2020-07-22 11:04:05.116739,Sub2_Trial91_1.wav,0,13,2560,2.2284987445887046,True,12.654
2,1,1,0,m,82,2020-07-22 11:04:05.116739,Sub2_Trial91_1.wav,0,14,2932,4.397190540512544,True,12.654
2,1,1,0,m,82,2020-07-22 11:04:05.116739,Sub2_Trial91_1.wav,0,15,3346,8.495775720894454,True,12.654
2,1,1,0,m,82,2020-07-22 11:04:05.116739,Sub2_Trial91_1.wav,0,16,3808,7.839657062381069,True,12.654
2,1,1,0,m,82,2020-07-22 11:04:05.116739,Sub2_Trial91_1.wav,0,17,4322,1.8805093085503135,True,12.654
2,1,1,0,m,82,2020-07-22 11:04:05.116739,Sub2_Trial91_1.wav,0,18,4895,-8.164090358984314,True,12.654
2,1,1,0,m,82,2020-07-22 11:04:05.116739,Sub2_Trial91_1.wav,0,19,5534,-1.1672514101062417,True,12.654
2,1,1,0,m,82,2020-07-22 11:04:05.116739,Sub2_Trial91_1.wav,0,20,6245,1.1444778706047518,True,12.654
2,1,1,0,m,82,2020-07-22 11:04:05.116739,Sub2_Trial91_1.wav,0,21,7037,0.3350594807216229,True,12.654
2,1,1,0,m,82,2020-07-22 11:04:05.116739,Sub2_Trial91_1.wav,0,22,7920,5.9212626485871,True,12.654
2,1,1,0,m,82,2020-07-22 11:04:05.116739,Sub2_Trial91_1.wav,0,23,8904,-1.0535446268922863,True,12.654
2,1,1,0,m,82,2020-07-22 11:04:05.116739,Sub2_Trial91_1.wav,0,24,10000,5.43145595557191,True,12.654
2,1,1,0,m,82,2020-07-22 11:04:05.116739,Sub2_Trial246_1.wav,1,0,100,0.12411427077084856,False,12.654
2,1,1,0,m,82,2020-07-22 11:04:05.116739,Sub2_Trial246_1.wav,1,1,191,-0.8045056525401819,False,12.654
2,1,1,0,m,82,2020-07-22 11:04:05.116739,Sub2_Trial246_1.wav,1,2,293,0.26690186852017406,False,12.654
2,1,1,0,m,82,2020-07-22 11:04:05.116739,Sub2_Trial246_1.wav,1,3,406,-1.6500978857549504,False,12.654
2,1,1,0,m,82,2020-07-22 11:04:05.116739,Sub2_Trial246_1.wav,1,4,533,5.368637413851358,False,12.654
2,1,1,0,m,82,2020-07-22 11:04:05.116739,Sub2_Trial246_1.wav,1,5,673,-7.959004379452703,False,12.654
2,1,1,0,m,82,2020-07-22 11:04:05.116739,Sub2_Trial246_1.wav,1,6,830,-4.762850211882611,False,12.654
2,1,1,0,m,82,2020-07-22 11:04:05.116739,Sub2_Trial246_1.wav,1,7,1004,5.752095338662797,False,12.654
2,1,1,0,m,82,2020-07-22 11:04:05.116739,Sub2_Trial246_1.wav,1,8,1199,-0.4417750751142647,False,12.654
2,1,1,0,m,82,2020-07-22 11:04:05.116739,Sub2_Trial246_1.wav,1,9,1416,-7.167014872908362,False,12.654
2,1,1,0,m,82,2020-07-22 11:04:05.116739,Sub2_Trial246_1.wav,1,10,1657,-3.159890289679498,False,12.654
2,1,1,0,m,82,2020-07-22 11:04:05.116739,Sub2_Trial246_1.wav,1,11,1926,1.0488621729225693,False,12.654
2,1,1,0,m,82,2020-07-22 11:04:05.116739,Sub2_Trial246_1.wav,1,12,2226,-7.8150729926393865,False,12.654
2,1,1,0,m,82,2020-07-22 11:04:05.116739,Sub2_Trial246_1.wav,1,13,2560,1.6204250104647346,False,12.654
2,1,1,0,m,82,2020-07-22 11:04:05.116739,Sub2_Trial246_1.wav,1,14,2932,7.998542889715941,False,12.654
2,1,1,0,m,82,2020-07-22 11:04:05.116739,Sub2_Trial246_1.wav,1,15,3346,1.4632356871723495,False,12.654
2,1,1,0,m,82,2020-07-22 11:04:05.116739,Sub2_Trial246_1.wav,1,16,3808,-4.283759402659274,False,12.654
2,1,1,0,m,82,2020-07-22 11:04:05.116739,Sub2_Trial246_1.wav,1,17,4322,4.547283746709063,False,12.654
2,1,1,0,m,82,2020-07-22 11:04:05.116739,Sub2_Trial246_1.wav,1,18,4895,1.9038054465717502,False,12.654
2,1,1,0,m,82,2020-07-22 11:04:05.116739,Sub2_Trial246_1.wav,1,19,5534,-5.652968601729281,False,12.654
2,1,1,0,m,82,2020-07-22 11:04:05.116739,Sub2_Trial246_1.wav,1,20,6245,3.671503368240119,False,12.654
2,1,1,0,m,82,2020-07-22 11:04:05.116739,Sub2_Trial246_1.wav,1,21,7037,-7.184078053804386,False,12.654
2,1,1,0,m,82,2020-07-22 11:04:05.116739,Sub2_Trial246_1.wav,1,22,7920,-3.137412040326347,False,12.654
2,1,1,0,m,82,2020-07-22 11:04:05.116739,Sub2_Trial246_1.wav,1,23,8904,-7.354356694430382,False,12.654
2,1,1,0,m,82,2020-07-22 11:04:05.116739,Sub2_Trial246_1.wav,1,24,10000,2.4926777197057377,False,12.654
2,1,2,0,m,82,2020-07-22 11:04:05.116739,Sub2_Trial195_1.wav,0,0,100,7.131325874538951,False,8.609
2,1,2,0,m,82,2020-07-22 11:04:05.116739,Sub2_Trial195_1.wav,0,1,191,-6.074439158221371,False,8.609
2,1,2,0,m,82,2020-07-22 11:04:05.116739,Sub2_Trial195_1.wav,0,2,293,9.704001861025644,False,8.609
2,1,2,0,m,82,2020-07-22 11:04:05.116739,Sub2_Trial195_1.wav,0,3,406,9.25149824466928,False,8.609
2,1,2,0,m,82,2020-07-22 11:04:05.116739,Sub2_Trial195_1.wav,0,4,533,-0.7567908630509266,False,8.609
2,1,2,0,m,82,2020-07-22 11:04:05.116739,Sub2_Trial195_1.wav,0,5,673,-4.134697680345893,False,8.609
2,1,2,0,m,82,2020-07-22 11:04:05.116739,Sub2_Trial195_1.wav,0,6,830,-4.289124938750194,False,8.609
2,1,2,0,m,82,2020-07-22 11:04:05.116739,Sub2_Trial195_1.wav,0,7,1004,-5.486988954545177,False,8.609
2,1,2,0,m,82,2020-07-22 11:04:05.116739,Sub2_Trial195_1.wav,0,8,1199,0.8074543208932682,False,8.609
2,1,2,0,m,82,2020-07-22 11:04:05.116739,Sub2_Trial195_1.wav,0,9,1416,-5.667043211820553,False,8.609
2,1,2,0,m,82,2020-07-22 11:04:05.116739,Sub2_Trial195_1.wav,0,10,1657,-6.700796189440132,False,8.609
2,1,2,0,m,82,2020-07-22 11:04:05.116739,Sub2_Trial195_1.wav,0,11,1926,1.9879507462325294,False,8.609
2,1,2,0,m,82,2020-07-22 11:04:05.116739,Sub2_Trial195_1.wav,0,12,2226,2.293478268799386,False,8.609
2,1,2,0,m,82,2020-07-22 11:04:05.116739,Sub2_Trial195_1.wav,0,13,2560,6.75802879074952,False,8.609
2,1,2,0,m,82,2020-07-22 11:04:05.116739,Sub2_Trial195_1.wav,0,14,2932,-4.05647541629307,False,8.609
2,1,2,0,m,82,2020-07-22 11:04:05.116739,Sub2_Trial195_1.wav,0,15,3346,3.8390108522784367,False,8.609
2,1,2,0,m,82,2020-07-22 11:04:05.116739,Sub2_Trial195_1.wav,0,16,3808,5.927214641348408,False,8.609
2,1,2,0,m,82,2020-07-22 11:04:05.116739,Sub2_Trial195_1.wav,0,17,4322,0.8317513197808667,False,8.609
2,1,2,0,m,82,2020-07-22 11:04:05.116739,Sub2_Trial195_1.wav,0,18,4895,0.610443302433733,False,8.609
2,1,2,0,m,82,2020-07-22 11:04:05.116739,Sub2_Trial195_1.wav,0,19,5534,2.9666925110655997,False,8.609
2,1,2,0,m,82,2020-07-22 11:04:05.116739,Sub2_Trial195_1.wav,0,20,6245,0.9222728578418472,False,8.609
2,1,2,0,m,82,2020-07-22 11:04:05.116739,Sub2_Trial195_1.wav,0,21,7037,-4.498100551529128,False,8.609
2,1,2,0,m,82,2020-07-22 11:04:05.116739,Sub2_Trial195_1.wav,0,22,7920,-3.1736704067832084,False,8.609
2,1,2,0,m,82,2020-07-22 11:04:05.116739,Sub2_Trial195_1.wav,0,23,8904,6.780266596925436,False,8.609
2,1,2,0,m,82,2020-07-22 11:04:05.116739,Sub2_Trial195_1.wav,0,24,10000,-2.2198067021675834,False,8.609
2,1,2,0,m,82,2020-07-22 11:04:05.116739,Sub2_Trial262_0.wav,1,0,100,-2.6100247598548503,True,8.609
2,1,2,0,m,82,2020-07-22 11:04:05.116739,Sub2_Trial262_0.wav,1,1,191,-2.847825713811518,True,8.609
2,1,2,0,m,82,2020-07-22 11:04:05.116739,Sub2_Trial262_0.wav,1,2,293,-4.608674040621544,True,8.609
2,1,2,0,m,82,2020-07-22 11:04:05.116739,Sub2_Trial262_0.wav,1,3,406,1.5583113156562525,True,8.609
2,1,2,0,m,82,2020-07-22 11:04:05.116739,Sub2_Trial262_0.wav,1,4,533,-4.805311894799149,True,8.609
2,1,2,0,m,82,2020-07-22 11:04:05.116739,Sub2_Trial262_0.wav,1,5,673,-8.42781443877188,True,8.609
2,1,2,0,m,82,2020-07-22 11:04:05.116739,Sub2_Trial262_0.wav,1,6,830,2.878603663041051,True,8.609
2,1,2,0,m,82,2020-07-22 11:04:05.116739,Sub2_Trial262_0.wav,1,7,1004,9.840680263545792,True,8.609
2,1,2,0,m,82,2020-07-22 11:04:05.116739,Sub2_Trial262_0.wav,1,8,1199,9.936066555630447,True,8.609
2,1,2,0,m,82,2020-07-22 11:04:05.116739,Sub2_Trial262_0.wav,1,9,1416,3.036428419516412,True,8.609
2,1,2,0,m,82,2020-07-22 11:04:05.116739,Sub2_Trial262_0.wav,1,10,1657,-7.042964772427864,True,8.609
2,1,2,0,m,82,2020-07-22 11:04:05.116739,Sub2_Trial262_0.wav,1,11,1926,-1.0768891436326413,True,8.609
2,1,2,0,m,82,2020-07-22 11:04:05.116739,Sub2_Trial262_0.wav,1,12,2226,9.665025243598683,True,8.609
2,1,2,0,m,82,2020-07-22 11:04:05.116739,Sub2_Trial262_0.wav,1,13,2560,-3.294131373056569,True,8.609
2,1,2,0,m,82,2020-07-22 11:04:05.116739,Sub2_Trial262_0.wav,1,14,2932,-7.5326231620340645,True,8.609
2,1,2,0,m,82,2020-07-22 11:04:05.116739,Sub2_Trial262_0.wav,1,15,3346,-5.020993744619297,True,8.609
2,1,2,0,m,82,2020-07-22 11:04:05.116739,Sub2_Trial262_0.wav,1,16,3808,-3.926214208790851,True,8.609
2,1,2,0,m,82,2020-07-22 11:04:05.116739,Sub2_Trial262_0.wav,1,17,4322,1.2909923107638055,True,8.609
2,1,2,0,m,82,2020-07-22 11:04:05.116739,Sub2_Trial262_0.wav,1,18,4895,-6.689424218979754,True,8.609
2,1,2,0,m,82,2020-07-22 11:04:05.116739,Sub2_Trial262_0.wav,1,19,5534,-7.156602951893671,True,8.609
2,1,2,0,m,82,2020-07-22 11:04:05.116739,Sub2_Trial262_0.wav,1,20,6245,-7.58248063783709,True,8.609
2,1,2,0,m,82,2020-07-22 11:04:05.116739,Sub2_Trial262_0.wav,1,21,7037,2.026456950560674,True,8.609
2,1,2,0,m,82,2020-07-22 11:04:05.116739,Sub2_Trial262_0.wav,1,22,7920,-0.3957068326574218,True,8.609
2,1,2,0,m,82,2020-07-22 11:04:05.116739,Sub2_Trial262_0.wav,1,23,8904,3.3947403750464162,True,8.609
2,1,2,0,m,82,2020-07-22 11:04:05.116739,Sub2_Trial262_0.wav,1,24,10000,-3.605386290201686,True,8.609
2,1,3,1,m,82,2020-07-22 11:04:05.116739,Sub2_Trial100_0.wav,0,0,100,-3.829784375010194,True,6.322
2,1,3,1,m,82,2020-07-22 11:04:05.116739,Sub2_Trial100_0.wav,0,1,191,-2.385586686883188,True,6.322
2,1,3,1,m,82,2020-07-22 11:04:05.116739,Sub2_Trial100_0.wav,0,2,293,-8.280479520179023,True,6.322
2,1,3,1,m,82,2020-07-22 11:04:05.116739,Sub2_Trial100_0.wav,0,3,406,8.338099339398457,True,6.322
2,1,3,1,m,82,2020-07-22 11:04:05.116739,Sub2_Trial100_0.wav,0,4,533,3.3095637246528713,True,6.322
2,1,3,1,m,82,2020-07-22 11:04:05.116739,Sub2_Trial100_0.wav,0,5,673,-11.537374754261249,True,6.322
2,1,3,1,m,82,2020-07-22 11:04:05.116739,Sub2_Trial100_0.wav,0,6,830,-2.1193922051299654,True,6.322
2,1,3,1,m,82,2020-07-22 11:04:05.116739,Sub2_Trial100_0.wav,0,7,1004,2.837555744442655,True,6.322
2,1,3,1,m,82,2020-07-22 11:04:05.116739,Sub2_Trial100_0.wav,0,8,1199,1.3070392257987553,True,6.322
2,1,3,1,m,82,2020-07-22 11:04:05.116739,Sub2_Trial100_0.wav,0,9,1416,0.44666745503160454,True,6.322
2,1,3,1,m,82,2020-07-22 11:04:05.116739,Sub2_Trial100_0.wav,0,10,1657,4.627038684905284,True,6.322
2,1,3,1,m,82,2020-07-22 11:04:05.116739,Sub2_Trial100_0.wav,0,11,1926,-11.080170655723194,True,6.322
2,1,3,1,m,82,2020-07-22 11:04:05.116739,Sub2_Trial100_0.wav,0,12,2226,-3.3040589747051268,True,6.322
2,1,3,1,m,82,2020-07-22 11:04:05.116739,Sub2_Trial100_0.wav,0,13,2560,-4.7693768490454564,True,6.322
2,1,3,1,m,82,2020-07-22 11:04:05.116739,Sub2_Trial100_0.wav,0,14,2932,9.782636219666186,True,6.322
2,1,3,1,m,82,2020-07-22 11:04:05.116739,Sub2_Trial100_0.wav,0,15,3346,-2.805349359171222,True,6.322
2,1,3,1,m,82,2020-07-22 11:04:05.116739,Sub2_Trial100_0.wav,0,16,3808,3.498805454258986,True,6.322
2,1,3,1,m,82,2020-07-22 11:04:05.116739,Sub2_Trial100_0.wav,0,17,4322,-6.85483318213573,True,6.322
2,1,3,1,m,82,2020-07-22 11:04:05.116739,Sub2_Trial100_0.wav,0,18,4895,-2.388401003537757,True,6.322
2,1,3,1,m,82,2020-07-22 11:04:05.116739,Sub2_Trial100_0.wav,0,19,5534,3.8627520282966934,True,6.322
2,1,3,1,m,82,2020-07-22 11:04:05.116739,Sub2_Trial100_0.wav,0,20,6245,-2.9740331658860364,True,6.322
2,1,3,1,m,82,2020-07-22 11:04:05.116739,Sub2_Trial100_0.wav,0,21,7037,-4.009496416830804,True,6.322
2,1,3,1,m,82,2020-07-22 11:04:05.116739,Sub2_Trial100_0.wav,0,22,7920,-3.272262011849179,True,6.322
2,1,3,1,m,82,2020-07-22 11:04:05.116739,Sub2_Trial100_0.wav,0,23,8904,-2.389591543348597,True,6.322
2,1,3,1,m,82,2020-07-22 11:04:05.116739,Sub2_Trial100_0.wav,0,24,10000,-5.336676403001971,True,6.322
2,1,3,1,m,82,2020-07-22 11:04:05.116739,Sub2_Trial236_0.wav,1,0,100,-0.26467692964414247,False,6.322
2,1,3,1,m,82,2020-07-22 11:04:05.116739,Sub2_Trial236_0.wav,1,1,191,3.3787282939236136,False,6.322
2,1,3,1,m,82,2020-07-22 11:04:05.116739,Sub2_Trial236_0.wav,1,2,293,-10.250863705142663,False,6.322
2,1,3,1,m,82,2020-07-22 11:04:05.116739,Sub2_Trial236_0.wav,1,3,406,8.033429021789551,False,6.322
2,1,3,1,m,82,2020-07-22 11:04:05.116739,Sub2_Trial236_0.wav,1,4,533,1.6416679682491546,False,6.322
2,1,3,1,m,82,2020-07-22 11:04:05.116739,Sub2_Trial236_0.wav,1,5,673,-9.279329646501601,False,6.322
2,1,3,1,m,82,2020-07-22 11:04:05.116739,Sub2_Trial236_0.wav,1,6,830,2.8686876576733447,False,6.322
2,1,3,1,m,82,2020-07-22 11:04:05.116739,Sub2_Trial236_0.wav,1,7,1004,3.851021266049653,False,6.322
2,1,3,1,m,82,2020-07-22 11:04:05.116739,Sub2_Trial236_0.wav,1,8,1199,5.950066066009246,False,6.322
2,1,3,1,m,82,2020-07-22 11:04:05.116739,Sub2_Trial236_0.wav,1,9,1416,-2.977797746724425,False,6.322
2,1,3,1,m,82,2020-07-22 11:04:05.116739,Sub2_Trial236_0.wav,1,10,1657,10.534941505320358,False,6.322
2,1,3,1,m,82,2020-07-22 11:04:05.116739,Sub2_Trial236_0.wav,1,11,1926,5.07244178081134,False,6.322
2,1,3,1,m,82,2020-07-22 11:04:05.116739,Sub2_Trial236_0.wav,1,12,2226,5.814515166825819,False,6.322
2,1,3,1,m,82,2020-07-22 11:04:05.116739,Sub2_Trial236_0.wav,1,13,2560,-5.347916610302017,False,6.322
2,1,3,1,m,82,2020-07-22 11:04:05.116739,Sub2_Trial236_0.wav,1,14,2932,-0.8153972553904634,False,6.322
2,1,3,1,m,82,2020-07-22 11:04:05.116739,Sub2_Trial236_0.wav,1,15,3346,-1.0761547995479146,False,6.322
2,1,3,1,m,82,2020-07-22 11:04:05.116739,Sub2_Trial236_0.wav,1,16,3808,-1.9408882808910433,False,6.322
2,1,3,1,m,82,2020-07-22 11:04:05.116739,Sub2_Trial236_0.wav,1,17,4322,0.6124379962134434,False,6.322
2,1,3,1,m,82,2020-07-22 11:04:05.116739,Sub2_Trial236_0.wav,1,18,4895,11.262869957290034,False,6.322
2,1,3,1,m,82,2020-07-22 11:04:05.116739,Sub2_Trial236_0.wav,1,19,5534,2.693501166748273,False,6.322
2,1,3,1,m,82,2020-07-22 11:04:05.116739,Sub2_Trial236_0.wav,1,20,6245,1.7131432377927192,False,6.322
2,1,3,1,m,82,2020-07-22 11:04:05.116739,Sub2_Trial236_0.wav,1,21,7037,-3.9376142157132166,False,6.322
2,1,3,1,m,82,2020-07-22 11:04:05.116739,Sub2_Trial236_0.wav,1,22,7920,-0.8979259051958683,False,6.322
2,1,3,1,m,82,2020-07-22 11:04:05.116739,Sub2_Trial236_0.wav,1,23,8904,1.404372121477784,False,6.322
2,1,3,1,m,82,2020-07-22 11:04:05.116739,Sub2_Trial236_0.wav,1,24,10000,7.622387544288146,False,6.322
2,1,4,1,m,82,2020-07-22 11:04:05.116739,Sub2_Trial100_1.wav,0,0,100,4.140957267232867,True,7.269
2,1,4,1,m,82,2020-07-22 11:04:05.116739,Sub2_Trial100_1.wav,0,1,191,-3.758098194398529,True,7.269
2,1,4,1,m,82,2020-07-22 11:04:05.116739,Sub2_Trial100_1.wav,0,2,293,-0.7406865118087429,True,7.269
2,1,4,1,m,82,2020-07-22 11:04:05.116739,Sub2_Trial100_1.wav,0,3,406,0.18837824804162992,True,7.269
2,1,4,1,m,82,2020-07-22 11:04:05.116739,Sub2_Trial100_1.wav,0,4,533,0.30926119531964086,True,7.269
2,1,4,1,m,82,2020-07-22 11:04:05.116739,Sub2_Trial100_1.wav,0,5,673,1.6577853152082864,True,7.269
2,1,4,1,m,82,2020-07-22 11:04:05.116739,Sub2_Trial100_1.wav,0,6,830,2.3753800011803774,True,7.269
2,1,4,1,m,82,2020-07-22 11:04:05.116739,Sub2_Trial100_1.wav,0,7,1004,4.447257547651037,True,7.269
2,1,4,1,m,82,2020-07-22 11:04:05.116739,Sub2_Trial100_1.wav,0,8,1199,-5.691580706983909,True,7.269
2,1,4,1,m,82,2020-07-22 11:04:05.116739,Sub2_Trial100_1.wav,0,9,1416,4.743323816139092,True,7.269
2,1,4,1,m,82,2020-07-22 11:04:05.116739,Sub2_Trial100_1.wav,0,10,1657,-1.1991332235980825,True,7.269
2,1,4,1,m,82,2020-07-22 11:04:05.116739,Sub2_Trial100_1.wav,0,11,1926,-2.6433198640184634,True,7.269
2,1,4,1,m,82,2020-07-22 11:04:05.116739,Sub2_Trial100_1.wav,0,12,2226,2.02410088412874,True,7.269
2,1,4,1,m,82,2020-07-22 11:04:05.116739,Sub2_Trial100_1.wav,0,13,2560,6.387115543097276,True,7.269
2,1,4,1,m,82,2020-07-22 11:04:05.116739,Sub2_Trial100_1.wav,0,14,2932,1.9458480350731133,True,7.269
2,1,4,1,m,82,2020-07-22 11:04:05.116739,Sub2_Trial100_1.wav,0,15,3346,-0.1028513020584613,True,7.269
2,1,4,1,m,82,2020-07-22 11:04:05.116739,Sub2_Trial100_1.wav,0,16,3808,-2.1648457709594444,True,7.269
2,1,4,1,m,82,2020-07-22 11:04:05.116739,Sub2_Trial100_1.wav,0,17,4322,-1.70272073570072,True,7.269
2,1,4,1,m,82,2020-07-22 11:04:05.116739,Sub2_Trial100_1.wav,0,18,4895,1.621720462188876,True,7.269
2,1,4,1,m,82,2020-07-22 11:04:05.116739,Sub2_Trial100_1.wav,0,19,5534,-0.45386336399053673,True,7.269
2,1,4,1,m,82,2020-07-22 11:04:05.116739,Sub2_Trial100_1.wav,0,20,6245,8.950321570907175,True,7.269
2,1,4,1,m,82,2020-07-22 11:04:05.116739,Sub2_Trial100_1.wav,0,21,7037,-0.5743763960548972,True,7.269
2,1,4,1,m,82,2020-07-22 11:04:05.116739,Sub2_Trial100_1.wav,0,22,7920,2.472139350997435,True,7.269
2,1,4,1,m,82,2020-07-22 11:04:05.116739,Sub2_Trial100_1.wav,0,23,8904,-0.12737024714516929,True,7.269
2,1,4,1,m,82,2020-07-22 11:04:05.116739,Sub2_Trial100_1.wav,0,24,10000,6.625900603922512,True,7.269
2,1,4,1,m,82,2020-07-22 11:04:05.116739,Sub2_Trial236_1.wav,1,0,100,4.070732854027377,False,7.269
2,1,4,1,m,82,2020-07-22 11:04:05.116739,Sub2_Trial236_1.wav,1,1,191,-7.090562270140584,False,7.269
2,1,4,1,m,82,2020-07-22 11:04:05.116739,Sub2_Trial236_1.wav,1,2,293,0.48865476667659274,False,7.269
2,1,4,1,m,82,2020-07-22 11:04:05.116739,Sub2_Trial236_1.wav,1,3,406,-4.604914045225908,False,7.269
2,1,4,1,m,82,2020-07-22 11:04:05.116739,Sub2_Trial236_1.wav,1,4,533,4.3502089168133455,False,7.269
2,1,4,1,m,82,2020-07-22 11:04:05.116739,Sub2_Trial236_1.wav,1,5,673,5.7646144726724335,False,7.269
2,1,4,1,m,82,2020-07-22 11:04:05.116739,Sub2_Trial236_1.wav,1,6,830,8.70597129895178,False,7.269
2,1,4,1,m,82,2020-07-22 11:04:05.116739,Sub2_Trial236_1.wav,1,7,1004,6.040546430916632,False,7.269
2,1,4,1,m,82,2020-07-22 11:04:05.116739,Sub2_Trial236_1.wav,1,8,1199,3.527617179031355,False,7.269
2,1,4,1,m,82,2020-07-22 11:04:05.116739,Sub2_Trial236_1.wav,1,9,1416,2.1030327814370477,False,7.269
2,1,4,1,m,82,2020-07-22 11:04:05.116739,Sub2_Trial236_1.wav,1,10,1657,4.987263583508998,False,7.269
2,1,4,1,m,82,2020-07-22 11:04:05.116739,Sub2_Trial236_1.wav,1,11,1926,1.8726315978293198,False,7.269
2,1,4,1,m,82,2020-07-22 11:04:05.116739,Sub2_Trial236_1.wav,1,12,2226,-10.368094130195084,False,7.269
2,1,4,1,m,82,2020-07-22 11:04:05.116739,Sub2_Trial236_1.wav,1,13,2560,-1.2796817982018682,False,7.269
2,1,4,1,m,82,2020-07-22 11:04:05.116739,Sub2_Trial236_1.wav,1,14,2932,-10.71465314393418,False,7.269
2,1,4,1,m,82,2020-07-22 11:04:05.116739,Sub2_Trial236_1.wav,1,15,3346,-3.0985100893467776,False,7.269
2,1,4,1,m,82,2020-07-22 11:04:05.116739,Sub2_Trial236_1.wav,1,16,3808,-4.7447082667986615,False,7.269
2,1,4,1,m,82,2020-07-22 11:04:05.116739,Sub2_Trial236_1.wav,1,17,4322,3.3979438026059134,False,7.269
2,1,4,1,m,82,2020-07-22 11:04:05.116739,Sub2_Trial236_1.wav,1,18,4895,-8.306981228146828,False,7.269
2,1,4,1,m,82,2020-07-22 11:04:05.116739,Sub2_Trial236_1.wav,1,19,5534,2.7220096220643475,False,7.269
2,1,4,1,m,82,2020-07-22 11:04:05.116739,Sub2_Trial236_1.wav,1,20,6245,-1.6948273077115843,False,7.269
2,1,4,1,m,82,2020-07-22 11:04:05.116739,Sub2_Trial236_1.wav,1,21,7037,-2.495949539713144,False,7.269
2,1,4,1,m,82,2020-07-22 11:04:05.116739,Sub2_Trial236_1.wav,1,22,7920,3.4423181396455407,False,7.269
2,1,4,1,m,82,2020-07-22 11:04:05.116739,Sub2_Trial236_1.wav,1,23,8904,0.555333528864531,False,7.269
2,1,4,1,m,82,2020-07-22 11:04:05.116739,Sub2_Trial236_1.wav,1,24,10000,-3.195358687998873,False,7.269
2,1,5,1,m,82,2020-07-22 11:04:05.116739,Sub2_Trial101_0.wav,0,0,100,-8.305616056798574,True,4.809
2,1,5,1,m,82,2020-07-22 11:04:05.116739,Sub2_Trial101_0.wav,0,1,191,-5.2564657347234665,True,4.809
2,1,5,1,m,82,2020-07-22 11:04:05.116739,Sub2_Trial101_0.wav,0,2,293,0.8338008136513241,True,4.809
2,1,5,1,m,82,2020-07-22 11:04:05.116739,Sub2_Trial101_0.wav,0,3,406,-1.3308191556008386,True,4.809
2,1,5,1,m,82,2020-07-22 11:04:05.116739,Sub2_Trial101_0.wav,0,4,533,-0.8628795007826079,True,4.809
2,1,5,1,m,82,2020-07-22 11:04:05.116739,Sub2_Trial101_0.wav,0,5,673,10.579230095963144,True,4.809
2,1,5,1,m,82,2020-07-22 11:04:05.116739,Sub2_Trial101_0.wav,0,6,830,-2.2566130732818994,True,4.809
2,1,5,1,m,82,2020-07-22 11:04:05.116739,Sub2_Trial101_0.wav,0,7,1004,-1.819985287959953,True,4.809
2,1,5,1,m,82,2020-07-22 11:04:05.116739,Sub2_Trial101_0.wav,0,8,1199,2.111654357380945,True,4.809
2,1,5,1,m,82,2020-07-22 11:04:05.116739,Sub2_Trial101_0.wav,0,9,1416,10.12030717112475,True,4.809
2,1,5,1,m,82,2020-07-22 11:04:05.116739,Sub2_Trial101_0.wav,0,10,1657,-4.630344963314085,True,4.809
2,1,5,1,m,82,2020-07-22 11:04:05.116739,Sub2_Trial101_0.wav,0,11,1926,2.1622076065939533,True,4.809
2,1,5,1,m,82,2020-07-22 11:04:05.116739,Sub2_Trial101_0.wav,0,12,2226,2.73505036251793,True,4.809
2,1,5,1,m,82,2020-07-22 11:04:05.116739,Sub2_Trial101_0.wav,0,13,2560,5.589482524128023,True,4.809
2,1,5,1,m,82,2020-07-22 11:04:05.116739,Sub2_Trial101_0.wav,0,14,2932,-0.9065772430243711,True,4.809
2,1,5,1,m,82,2020-07-22 11:04:05.116739,Sub2_Trial101_0.wav,0,15,3346,1.3650459587897166,True,4.809
2,1,5,1,m,82,2020-07-22 11:04:05.116739,Sub2_Trial101_0.wav,0,16,3808,2.8636587524219075,True,4.809
2,1,5,1,m,82,2020-07-22 11:04:05.116739,Sub2_Trial101_0.wav,0,17,4322,-1.4632187995246864,True,4.809
2,1,5,1,m,82,2020-07-22 11:04:05.116739,Sub2_Trial101_0.wav,0,18,4895,3.8086549964514753,True,4.809
2,1,5,1,m,82,2020-07-22 11:04:05.116739,Sub2_Trial101_0.wav,0,19,5534,3.5794371668370624,True,4.809
2,1,5,1,m,82,2020-07-22 11:04:05.116739,Sub2_Trial101_0.wav,0,20,6245,3.7129546931874016,True,4.809
2,1,5,1,m,82,2020-07-22 11:04:05.116739,Sub2_Trial101_0.wav,0,21,7037,0.701424724466762,True,4.809
2,1,5,1,m,82,2020-07-22 11:04:05.116739,Sub2_Trial101_0.wav,0,22,7920,-2.86251593165741,True,4.809
2,1,5,1,m,82,2020-07-22 11:04:05.116739,Sub2_Trial101_0.wav,0,23,8904,3.7682510139415832,True,4.809
2,1,5,1,m,82,2020-07-22 11:04:05.116739,Sub2_Trial101_0.wav,0,24,10000,-0.8934486551171262,True,4.809
2,1,5,1,m,82,2020-07-22 11:04:05.116739,Sub2_Trial237_0.wav,1,0,100,9.252402788917394,False,4.809
2,1,5,1,m,82,2020-07-22 11:04:05.116739,Sub2_Trial237_0.wav,1,1,191,4.7249320733133695,False,4.809
2,1,5,1,m,82,2020-07-22 11:04:05.116739,Sub2_Trial237_0.wav,1,2,293,-1.4296264126790994,False,4.809
2,1,5,1,m,82,2020-07-22 11:04:05.116739,Sub2_Trial237_0.wav,1,3,406,-10.951244431147217,False,4.809
2,1,5,1,m,82,2020-07-22 11:04:05.116739,Sub2_Trial237_0.wav,1,4,533,-4.381820036874887,False,4.809
2,1,5,1,m,82,2020-07-22 11:04:05.116739,Sub2_Trial237_0.wav,1,5,673,-0.8739500779922987,False,4.809
2,1,5,1,m,82,2020-07-22 11:04:05.116739,Sub2_Trial237_0.wav,1,6,830,-2.477860998147952,False,4.809
2,1,5,1,m,82,2020-07-22 11:04:05.116739,Sub2_Trial237_0.wav,1,7,1004,-4.058568487687263,False,4.809
2,1,5,1,m,82,2020-07-22 11:04:05.116739,Sub2_Trial237_0.wav,1,8,1199,2.5289004759985327,False,4.809
2,1,5,1,m,82,2020-07-22 11:04:05.116739,Sub2_Trial237_0.wav,1,9,1416,-2.1460982481574766,False,4.809
2,1,5,1,m,82,2020-07-22 11:04:05.116739,Sub2_Trial237_0.wav,1,10,1657,11.219165399260387,False,4.809
2,1,5,1,m,82,2020-07-22 11:04:05.116739,Sub2_Trial237_0.wav,1,11,1926,3.7409353384904636,False,4.809
2,1,5,1,m,82,2020-07-22 11:04:05.116739,Sub2_Trial237_0.wav,1,12,2226,-1.2298527569588804,False,4.809
2,1,5,1,m,82,2020-07-22 11:04:05.116739,Sub2_Trial237_0.wav,1,13,2560,3.698705566842202,False,4.809
2,1,5,1,m,82,2020-07-22 11:04:05.116739,Sub2_Trial237_0.wav,1,14,2932,0.2028944827646155,False,4.809
2,1,5,1,m,82,2020-07-22 11:04:05.116739,Sub2_Trial237_0.wav,1,15,3346,-3.7543496509421255,False,4.809
2,1,5,1,m,82,2020-07-22 11:04:05.116739,Sub2_Trial237_0.wav,1,16,3808,-6.433733012766012,False,4.809
2,1,5,1,m,82,2020-07-22 11:04:05.116739,Sub2_Trial237_0.wav,1,17,4322,5.375095168588326,False,4.809
2,1,5,1,m,82,2020-07-22 11:04:05.116739,Sub2_Trial237_0.wav,1,18,4895,-8.130010141656319,False,4.809
2,1,5,1,m,82,2020-07-22 11:04:05.116739,Sub2_Trial237_0.wav,1,19,5534,0.8860973358986033,False,4.809
2,1,5,1,m,82,2020-07-22 11:04:05.116739,Sub2_Trial237_0.wav,1,20,6245,0.018699697987816954,False,4.809
2,1,5,1,m,82,2020-07-22 11:04:05.116739,Sub2_Trial237_0.wav,1,21,7037,-2.303967610667053,False,4.809
2,1,5,1,m,82,2020-07-22 11:04:05.116739,Sub2_Trial237_0.wav,1,22,7920,-0.12353083789963089,False,4.809
2,1,5,1,m,82,2020-07-22 11:04:05.116739,Sub2_Trial237_0.wav,1,23,8904,-1.1373971369521867,False,4.809
2,1,5,1,m,82,2020-07-22 11:04:05.116739,Sub2_Trial237_0.wav,1,24,10000,3.7330036718897635,False,4.809
2,1,6,1,m,82,2020-07-22 11:04:05.116739,Sub2_Trial101_1.wav,0,0,100,-6.491382856340863,True,3.583
2,1,6,1,m,82,2020-07-22 11:04:05.116739,Sub2_Trial101_1.wav,0,1,191,0.036564962870733374,True,3.583
2,1,6,1,m,82,2020-07-22 11:04:05.116739,Sub2_Trial101_1.wav,0,2,293,-6.489745200593301,True,3.583
2,1,6,1,m,82,2020-07-22 11:04:05.116739,Sub2_Trial101_1.wav,0,3,406,2.1680598938881177,True,3.583
2,1,6,1,m,82,2020-07-22 11:04:05.116739,Sub2_Trial101_1.wav,0,4,533,2.808180403256894,True,3.583
2,1,6,1,m,82,2020-07-22 11:04:05.116739,Sub2_Trial101_1.wav,0,5,673,1.4599761859489786,True,3.583
2,1,6,1,m,82,2020-07-22 11:04:05.116739,Sub2_Trial101_1.wav,0,6,830,1.5916663427005098,True,3.583
2,1,6,1,m,82,2020-07-22 11:04:05.116739,Sub2_Trial101_1.wav,0,7,1004,-0.41756786319477746,True,3.583
2,1,6,1,m,82,2020-07-22 11:04:05.116739,Sub2_Trial101_1.wav,0,8,1199,-2.329723603404118,True,3.583
2,1,6,1,m,82,2020-07-22 11:04:05.116739,Sub2_Trial101_1.wav,0,9,1416,3.3272098337284755,True,3.583
2,1,6,1,m,82,2020-07-22 11:04:05.116739,Sub2_Trial101_1.wav,0,10,1657,7.2491796115249985,True,3.583
2,1,6,1,m,82,2020-07-22 11:04:05.116739,Sub2_Trial101_1.wav,0,11,1926,2.6633718689432415,True,3.583
2,1,6,1,m,82,2020-07-22 11:04:05.116739,Sub2_Trial101_1.wav,0,12,2226,4.475663241858458,True,3.583
2,1,6,1,m,82,2020-07-22 11:04:05.116739,Sub2_Trial101_1.wav,0,13,2560,1.661628116794223,True,3.583
2,1,6,1,m,82,2020-07-22 11:04:05.116739,Sub2_Trial101_1.wav,0,14,2932,-3.495873952617502,True,3.583
2,1,6,1,m,82,2020-07-22 11:04:05.116739,Sub2_Trial101_1.wav,0,15,3346,-3.7311484914743405,True,3.583
2,1,6,1,m,82,2020-07-22 11:04:05.116739,Sub2_Trial101_1.wav,0,16,3808,3.6569108594982414,True,3.583
2,1,6,1,m,82,2020-07-22 11:04:05.116739,Sub2_Trial101_1.wav,0,17,4322,-1.7605504411835258,True,3.583
2,1,6,1,m,82,2020-07-22 11:04:05.116739,Sub2_Trial101_1.wav,0,18,4895,-3.3658828648515153,True,3.583
2,1,6,1,m,82,2020-07-22 11:04:05.116739,Sub2_Trial101_1.wav,0,19,5534,-0.7961933193940867,True,3.583
2,1,6,1,m,82,2020-07-22 11:04:05.116739,Sub2_Trial101_1.wav,0,20,6245,11.015467632276113,True,3.583
2,1,6,1,m,82,2020-07-22 11:04:05.116739,Sub2_Trial101_1.wav,0,21,7037,-10.631046672002508,True,3.583
2,1,6,1,m,82,2020-07-22 11:04:05.116739,Sub2_Trial101_1.wav,0,22,7920,-2.46373727028216,True,3.583
2,1,6,1,m,82,2020-07-22 11:04:05.116739,Sub2_Trial101_1.wav,0,23,8904,-3.4909800866691416,True,3.583
2,1,6,1,m,82,2020-07-22 11:04:05.116739,Sub2_Trial101_1.wav,0,24,10000,-2.223835880567157,True,3.583
2,1,6,1,m,82,2020-07-22 11:04:05.116739,Sub2_Trial237_1.wav,1,0,100,2.5413397031056255,False,3.583
2,1,6,1,m,82,2020-07-22 11:04:05.116739,Sub2_Trial237_1.wav,1,1,191,3.4638321041827416,False,3.583
2,1,6,1,m,82,2020-07-22 11:04:05.116739,Sub2_Trial237_1.wav,1,2,293,3.1751318041662002,False,3.583
2,1,6,1,m,82,2020-07-22 11:04:05.116739,Sub2_Trial237_1.wav,1,3,406,5.89235196557085,False,3.583
2,1,6,1,m,82,2020-07-22 11:04:05.116739,Sub2_Trial237_1.wav,1,4,533,-7.65206484685125,False,3.583
2,1,6,1,m,82,2020-07-22 11:04:05.116739,Sub2_Trial237_1.wav,1,5,673,-2.5324910952897817,False,3.583
2,1,6,1,m,82,2020-07-22 11:04:05.116739,Sub2_Trial237_1.wav,1,6,830,-3.4678970603860804,False,3.583
2,1,6,1,m,82,2020-07-22 11:04:05.116739,Sub2_Trial237_1.wav,1,7,1004,-5.015114497253055,False,3.583
2,1,6,1,m,82,2020-07-22 11:04:05.116739,Sub2_Trial237_1.wav,1,8,1199,-4.889810012874274,False,3.583
2,1,6,1,m,82,2020-07-22 11:04:05.116739,Sub2_Trial237_1.wav,1,9,1416,-4.2037616533175575,False,3.583
2,1,6,1,m,82,2020-07-22 11:04:05.116739,Sub2_Trial237_1.wav,1,10,1657,2.3137990801866697,False,3.583
2,1,6,1,m,82,2020-07-22 11:04:05.116739,Sub2_Trial237_1.wav,1,11,1926,-1.7995549929949173,False,3.583
2,1,6,1,m,82,2020-07-22 11:04:05.116739,Sub2_Trial237_1.wav,1,12,2226,7.103322165883956,False,3.583
2,1,6,1,m,82,2020-07-22 11:04:05.116739,Sub2_Trial237_1.wav,1,13,2560,-1.806653527439547,False,3.583
2,1,6,1,m,82,2020-07-22 11:04:05.116739,Sub2_Trial237_1.wav,1,14,2932,1.5745611513500868,False,3.583
2,1,6,1,m,82,2020-07-22 11:04:05.116739,Sub2_Trial237_1.wav,1,15,3346,-1.588231291943709,False,3.583
2,1,6,1,m,82,2020-07-22 11:04:05.116739,Sub2_Trial237_1.wav,1,16,3808,0.8216034853088858,False,3.583
2,1,6,1,m,82,2020-07-22 11:04:05.116739,Sub2_Trial237_1.wav,1,17,4322,-6.406800128802378,False,3.583
2,1,6,1,m,82,2020-07-22 11:04:05.116739,Sub2_Trial237_1.wav,1,18,4895,6.381260673858195,False,3.583
2,1,6,1,m,82,2020-07-22 11:04:05.116739,Sub2_Trial237_1.wav,1,19,5534,2.8045209817529297,False,3.583
2,1,6,1,m,82,2020-07-22 11:04:05.116739,Sub2_Trial237_1.wav,1,20,6245,4.266286961280951,False,3.583
2,1,6,1,m,82,2020-07-22 11:04:05.116739,Sub2_Trial237_1.wav,1,21,7037,9.062273121943003,False,3.583
2,1,6,1,m,82,2020-07-22 11:04:05.116739,Sub2_Trial237_1.wav,1,22,7920,7.041700897893625,False,3.583
2,1,6,1,m,82,2020-07-22 11:04:05.116739,Sub2_Trial237_1.wav,1,23,8904,2.3917952077876192,False,3.583
2,1,6,1,m,82,2020-07-22 11:04:05.116739,Sub2_Trial237_1.wav,1,24,10000,2.398124019876985,False,3.583
2,1,7,1,m,82,2020-07-22 11:04:05.116739,Sub2_Trial102_0.wav,0,0,100,-7.606032034620103,False,7.641
2,1,7,1,m,82,2020-07-22 11:04:05.116739,Sub2_Trial102_0.wav,0,1,191,-1.0220677091949755,False,7.641
2,1,7,1,m,82,2020-07-22 11:04:05.116739,Sub2_Trial102_0.wav,0,2,293,5.271695146004772,False,7.641
2,1,7,1,m,82,2020-07-22 11:04:05.116739,Sub2_Trial102_0.wav,0,3,406,-1.4234348746814176,False,7.641
2,1,7,1,m,82,2020-07-22 11:04:05.116739,Sub2_Trial102_0.wav,0,4,533,-1.2278369452989344,False,7.641
2,1,7,1,m,82,2020-07-22 11:04:05.116739,Sub2_Trial102_0.wav,0,5,673,-7.211837575587895,False,7.641
2,1,7,1,m,82,2020-07-22 11:04:05.116739,Sub2_Trial102_0.wav,0,6,830,-1.2008139086373935,False,7.641
2,1,7,1,m,82,2020-07-22 11:04:05.116739,Sub2_Trial102_0.wav,0,7,1004,-0.5196379079764659,False,7.641
2,1,7,1,m,82,2020-07-22 11:04:05.116739,Sub2_Trial102_0.wav,0,8,1199,-7.702718605476624,False,7.641
2,1,7,1,m,82,2020-07-22 11:04:05.116739,Sub2_Trial102_0.wav,0,9,1416,1.3469494736903533,False,7.641
2,1,7,1,m,82,2020-07-22 11:04:05.116739,Sub2_Trial102_0.wav,0,10,1657,5.688736963701187,False,7.641
2,1,7,1,m,82,2020-07-22 11:04:05.116739,Sub2_Trial102_0.wav,0,11,1926,-5.300531329306209,False,7.641
2,1,7,1,m,82,2020-07-22 11:04:05.116739,Sub2_Trial102_0.wav,0,12,2226,-1.6298898462497637,False,7.641
2,1,7,1,m,82,2020-07-22 11:04:05.116739,Sub2_Trial102_0.wav,0,13,2560,4.5865977272597735,False,7.641
2,1,7,1,m,82,2020-07-22 11:04:05.116739,Sub2_Trial102_0.wav,0,14,2932,-9.129571349026271,False,7.641
2,1,7,1,m,82,2020-07-22 11:04:05.116739,Sub2_Trial102_0.wav,0,15,3346,-7.849240118869007,False,7.641
2,1,7,1,m,82,2020-07-22 11:04:05.116739,Sub2_Trial102_0.wav,0,16,3808,0.30112112494897936,False,7.641
2,1,7,1,m,82,2020-07-22 11:04:05.116739,Sub2_Trial102_0.wav,0,17,4322,3.310003179211524,False,7.641
2,1,7,1,m,82,2020-07-22 11:04:05.116739,Sub2_Trial102_0.wav,0,18,4895,-2.008389532132916,False,7.641
2,1,7,1,m,82,2020-07-22 11:04:05.116739,Sub2_Trial102_0.wav,0,19,5534,-1.5622867654867212,False,7.641
2,1,7,1,m,82,2020-07-22 11:04:05.116739,Sub2_Trial102_0.wav,0,20,6245,5.206986408012629,False,7.641
2,1,7,1,m,82,2020-07-22 11:04:05.116739,Sub2_Trial102_0.wav,0,21,7037,6.221855254276835,False,7.641
2,1,7,1,m,82,2020-07-22 11:04:05.116739,Sub2_Trial102_0.wav,0,22,7920,1.5990044308162423,False,7.641
2,1,7,1,m,82,2020-07-22 11:04:05.116739,Sub2_Trial102_0.wav,0,23,8904,-4.872357662625797,False,7.641
2,1,7,1,m,82,2020-07-22 11:04:05.116739,Sub2_Trial102_0.wav,0,24,10000,7.852568473738365,False,7.641
2,1,7,1,m,82,2020-07-22 11:04:05.116739,Sub2_Trial238_0.wav,1,0,100,1.4210936498668827,True,7.641
2,1,7,1,m,82,2020-07-22 11:04:05.116739,Sub2_Trial238_0.wav,1,1,191,1.2559435968834558,True,7.641
2,1,7,1,m,82,2020-07-22 11:04:05.116739,Sub2_Trial238_0.wav,1,2,293,6.6305748355339755,True,7.641
2,1,7,1,m,82,2020-07-22 11:04:05.116739,Sub2_Trial238_0.wav,1,3,406,-5.119617706944223,True,7.641
2,1,7,1,m,82,2020-07-22 11:04:05.116739,Sub2_Trial238_0.wav,1,4,533,1.7066994525630141,True,7.641
2,1,7,1,m,82,2020-07-22 11:04:05.116739,Sub2_Trial238_0.wav,1,5,673,2.777173340738515,True,7.641
2,1,7,1,m,82,2020-07-22 11:04:05.116739,Sub2_Trial238_0.wav,1,6,830,10.34520796450886,True,7.641
2,1,7,1,m,82,2020-07-22 11:04:05.116739,Sub2_Trial238_0.wav,1,7,1004,3.167538705695021,True,7.641
2,1,7,1,m,82,2020-07-22 11:04:05.116739,Sub2_Trial238_0.wav,1,8,1199,-6.381675068899433,True,7.641
2,1,7,1,m,82,2020-07-22 11:04:05.116739,Sub2_Trial238_0.wav,1,9,1416,6.404793124687531,True,7.641
2,1,7,1,m,82,2020-07-22 11:04:05.116739,Sub2_Trial238_0.wav,1,10,1657,-0.512984665833368,True,7.641
2,1,7,1,m,82,2020-07-22 11:04:05.116739,Sub2_Trial238_0.wav,1,11,1926,3.9846804016296886,True,7.641
2,1,7,1,m,82,2020-07-22 11:04:05.116739,Sub2_Trial238_0.wav,1,12,2226,-2.446883153365465,True,7.641
2,1,7,1,m,82,2020-07-22 11:04:05.116739,Sub2_Trial238_0.wav,1,13,2560,5.091690420984788,True,7.641
2,1,7,1,m,82,2020-07-22 11:04:05.116739,Sub2_Trial238_0.wav,1,14,2932,2.395205988171967,True,7.641
2,1,7,1,m,82,2020-07-22 11:04:05.116739,Sub2_Trial238_0.wav,1,15,3346,11.34759326568345,True,7.641
2,1,7,1,m,82,2020-07-22 11:04:05.116739,Sub2_Trial238_0.wav,1,16,3808,2.619959048862194,True,7.641
2,1,7,1,m,82,2020-07-22 11:04:05.116739,Sub2_Trial238_0.wav,1,17,4322,0.5201705703679713,True,7.641
2,1,7,1,m,82,2020-07-22 11:04:05.116739,Sub2_Trial238_0.wav,1,18,4895,-6.825439090417377,True,7.641
2,1,7,1,m,82,2020-07-22 11:04:05.116739,Sub2_Trial238_0.wav,1,19,5534,3.387499968443675,True,7.641
2,1,7,1,m,82,2020-07-22 11:04:05.116739,Sub2_Trial238_0.wav,1,20,6245,6.9418896756289685,True,7.641
2,1,7,1,m,82,2020-07-22 11:04:05.116739,Sub2_Trial238_0.wav,1,21,7037,6.292601223139679,True,7.641
2,1,7,1,m,82,2020-07-22 11:04:05.116739,Sub2_Trial238_0.wav,1,22,7920,-2.968833187062516,True,7.641
2,1,7,1,m,82,2020-07-22 11:04:05.116739,Sub2_Trial238_0.wav,1,23,8904,0.46825748140324036,True,7.641
2,1,7,1,m,82,2020-07-22 11:04:05.116739,Sub2_Trial238_0.wav,1,24,10000,-7.629621028127152,True,7.641
2,1,8,1,m,82,2020-07-22 11:04:05.116739,Sub2_Trial102_1.wav,0,0,100,3.502103847456542,False,7.976
2,1,8,1,m,82,2020-07-22 11:04:05.116739,Sub2_Trial102_1.wav,0,1,191,-4.1182708269986055,False,7.976
2,1,8,1,m,82,2020-07-22 11:04:05.116739,Sub2_Trial102_1.wav,0,2,293,-4.325011813285177,False,7.976
2,1,8,1,m,82,2020-07-22 11:04:05.116739,Sub2_Trial102_1.wav,0,3,406,0.9566153262840122,False,7.976
2,1,8,1,m,82,2020-07-22 11:04:05.116739,Sub2_Trial102_1.wav,0,4,533,-2.6699473545970336,False,7.976
2,1,8,1,m,82,2020-07-22 11:04:05.116739,Sub2_Trial102_1.wav,0,5,673,-0.7823490829540879,False,7.976
2,1,8,1,m,82,2020-07-22 11:04:05.116739,Sub2_Trial102_1.wav,0,6,830,5.438645759693009,False,7.976
2,1,8,1,m,82,2020-07-22 11:04:05.116739,Sub2_Trial102_1.wav,0,7,1004,5.204285062502651,False,7.976
2,1,8,1,m,82,2020-07-22 11:04:05.116739,Sub2_Trial102_1.wav,0,8,1199,-5.184802180636652,False,7.976
2,1,8,1,m,82,2020-07-22 11:04:05.116739,Sub2_Trial102_1.wav,0,9,1416,-2.4736328014029736,False,7.976
2,1,8,1,m,82,2020-07-22 11:04:05.116739,Sub2_Trial102_1.wav,0,10,1657,4.461049739854312,False,7.976
2,1,8,1,m,82,2020-07-22 11:04:05.116739,Sub2_Trial102_1.wav,0,11,1926,-6.25229825644327,False,7.976
2,1,8,1,m,82,2020-07-22 11:04:05.116739,Sub2_Trial102_1.wav,0,12,2226,-7.143344159489914,False,7.976
2,1,8,1,m,82,2020-07-22 11:04:05.116739,Sub2_Trial102_1.wav,0,13,2560,3.1478598540450125,False,7.976
2,1,8,1,m,82,2020-07-22 11:04:05.116739,Sub2_Trial102_1.wav,0,14,2932,0.8310625997668277,False,7.976
2,1,8,1,m,82,2020-07-22 11:04:05.116739,Sub2_Trial102_1.wav,0,15,3346,4.201800553857935,False,7.976
2,1,8,1,m,82,2020-07-22 11:04:05.116739,Sub2_Trial102_1.wav,0,16,3808,-7.744110354593586,False,7.976
2,1,8,1,m,82,2020-07-22 11:04:05.116739,Sub2_Trial102_1.wav,0,17,4322,-3.5036445612127314,False,7.976
2,1,8,1,m,82,2020-07-22 11:04:05.116739,Sub2_Trial102_1.wav,0,18,4895,-0.4435169380272078,False,7.976
2,1,8,1,m,82,2020-07-22 11:04:05.116739,Sub2_Trial102_1.wav,0,19,5534,4.7430077635117955,False,7.976
2,1,8,1,m,82,2020-07-22 11:04:05.116739,Sub2_Trial102_1.wav,0,20,6245,2.59723154887552,False,7.976
2,1,8,1,m,82,2020-07-22 11:04:05.116739,Sub2_Trial102_1.wav,0,21,7037,-1.963442567076166,False,7.976
2,1,8,1,m,82,2020-07-22 11:04:05.116739,Sub2_Trial102_1.wav,0,22,7920,10.50228631547721,False,7.976
2,1,8,1,m,82,2020-07-22 11:04:05.116739,Sub2_Trial102_1.wav,0,23,8904,-1.6880823215652654,False,7.976
2,1,8,1,m,82,2020-07-22 11:04:05.116739,Sub2_Trial102_1.wav,0,24,10000,-1.9882469490919232,False,7.976
2,1,8,1,m,82,2020-07-22 11:04:05.116739,Sub2_Trial238_1.wav,1,0,100,-7.9595131975964675,True,7.976
2,1,8,1,m,82,2020-07-22 11:04:05.116739,Sub2_Trial238_1.wav,1,1,191,5.409452528458329,True,7.976
2,1,8,1,m,82,2020-07-22 11:04:05.116739,Sub2_Trial238_1.wav,1,2,293,5.987851990936974,True,7.976
2,1,8,1,m,82,2020-07-22 11:04:05.116739,Sub2_Trial238_1.wav,1,3,406,3.1436196367269758,True,7.976
2,1,8,1,m,82,2020-07-22 11:04:05.116739,Sub2_Trial238_1.wav,1,4,533,5.177650949516331,True,7.976
2,1,8,1,m,82,2020-07-22 11:04:05.116739,Sub2_Trial238_1.wav,1,5,673,4.648808148711804,True,7.976
2,1,8,1,m,82,2020-07-22 11:04:05.116739,Sub2_Trial238_1.wav,1,6,830,6.097761571927723,True,7.976
2,1,8,1,m,82,2020-07-22 11:04:05.116739,Sub2_Trial238_1.wav,1,7,1004,3.603771691328731,True,7.976
2,1,8,1,m,82,2020-07-22 11:04:05.116739,Sub2_Trial238_1.wav,1,8,1199,1.129622771052072,True,7.976
2,1,8,1,m,82,2020-07-22 11:04:05.116739,Sub2_Trial238_1.wav,1,9,1416,-1.5583017663900498,True,7.976
2,1,8,1,m,82,2020-07-22 11:04:05.116739,Sub2_Trial238_1.wav,1,10,1657,-2.0251659685274728,True,7.976
2,1,8,1,m,82,2020-07-22 11:04:05.116739,Sub2_Trial238_1.wav,1,11,1926,-0.787642078006547,True,7.976
2,1,8,1,m,82,2020-07-22 11:04:05.116739,Sub2_Trial238_1.wav,1,12,2226,6.075213203539011,True,7.976
2,1,8,1,m,82,2020-07-22 11:04:05.116739,Sub2_Trial238_1.wav,1,13,2560,0.6620368021723116,True,7.976
2,1,8,1,m,82,2020-07-22 11:04:05.116739,Sub2_Trial238_1.wav,1,14,2932,-0.5091901159545088,True,7.976
2,1,8,1,m,82,2020-07-22 11:04:05.116739,Sub2_Trial238_1.wav,1,15,3346,-1.0627631911391693,True,7.976
2,1,8,1,m,82,2020-07-22 11:04:05.116739,Sub2_Trial238_1.wav,1,16,3808,0.5716030690247988,True,7.976
2,1,8,1,m,82,2020-07-22 11:04:05.116739,Sub2_Trial238_1.wav,1,17,4322,-6.297074928594535,True,7.976
2,1,8,1,m,82,2020-07-22 11:04:05.116739,Sub2_Trial238_1.wav,1,18,4895,5.201819699977009,True,7.976
2,1,8,1,m,82,2020-07-22 11:04:05.116739,Sub2_Trial238_1.wav,1,19,5534,1.5976674465717569,True,7.976
2,1,8,1,m,82,2020-07-22 11:04:05.116739,Sub2_Trial238_1.wav,1,20,6245,-0.05976869335859231,True,7.976
2,1,8,1,m,82,2020-07-22 11:04:05.116739,Sub2_Trial238_1.wav,1,21,7037,8.235110104978132,True,7.976
2,1,8,1,m,82,2020-07-22 11:04:05.116739,Sub2_Trial238_1.wav,1,22,7920,-10.710531264695494,True,7.976
2,1,8,1,m,82,2020-07-22 11:04:05.116739,Sub2_Trial238_1.wav,1,23,8904,-2.708047241811124,True,7.976
2,1,8,1,m,82,2020-07-22 11:04:05.116739,Sub2_Trial238_1.wav,1,24,10000,7.13671726500532,True,7.976
2,1,9,1,m,82,2020-07-22 11:04:05.116739,Sub2_Trial103_0.wav,0,0,100,0.8151156026184049,False,5.527
2,1,9,1,m,82,2020-07-22 11:04:05.116739,Sub2_Trial103_0.wav,0,1,191,5.76218195792669,False,5.527
2,1,9,1,m,82,2020-07-22 11:04:05.116739,Sub2_Trial103_0.wav,0,2,293,-1.5334824950594865,False,5.527
2,1,9,1,m,82,2020-07-22 11:04:05.116739,Sub2_Trial103_0.wav,0,3,406,4.81166563666639,False,5.527
2,1,9,1,m,82,2020-07-22 11:04:05.116739,Sub2_Trial103_0.wav,0,4,533,-2.0430067040749886,False,5.527
2,1,9,1,m,82,2020-07-22 11:04:05.116739,Sub2_Trial103_0.wav,0,5,673,-6.1406966050934475,False,5.527
2,1,9,1,m,82,2020-07-22 11:04:05.116739,Sub2_Trial103_0.wav,0,6,830,2.4124666173220026,False,5.527
2,1,9,1,m,82,2020-07-22 11:04:05.116739,Sub2_Trial103_0.wav,0,7,1004,-0.5950100275448861,False,5.527
2,1,9,1,m,82,2020-07-22 11:04:05.116739,Sub2_Trial103_0.wav,0,8,1199,6.362460336158015,False,5.527
2,1,9,1,m,82,2020-07-22 11:04:05.116739,Sub2_Trial103_0.wav,0,9,1416,-3.520805977352664,False,5.527
2,1,9,1,m,82,2020-07-22 11:04:05.116739,Sub2_Trial103_0.wav,0,10,1657,-0.03194410592159149,False,5.527
2,1,9,1,m,82,2020-07-22 11:04:05.116739,Sub2_Trial103_0.wav,0,11,1926,0.8389695815825566,False,5.527
2,1,9,1,m,82,2020-07-22 11:04:05.116739,Sub2_Trial103_0.wav,0,12,2226,-6.239642900679563,False,5.527
2,1,9,1,m,82,2020-07-22 11:04:05.116739,Sub2_Trial103_0.wav,0,13,2560,1.0768694116235333,False,5.527
2,1,9,1,m,82,2020-07-22 11:04:05.116739,Sub2_Trial103_0.wav,0,14,2932,2.3910192789822244,False,5.527
2,1,9,1,m,82,2020-07-22 11:04:05.116739,Sub2_Trial103_0.wav,0,15,3346,-2.8900350266587163,False,5.527
2,1,9,1,m,82,2020-07-22 11:04:05.116739,Sub2_Trial103_0.wav,0,16,3808,9.018536013200539,False,5.527
2,1,9,1,m,82,2020-07-22 11:04:05.116739,Sub2_Trial103_0.wav,0,17,4322,-5.956942842105266,False,5.527
2,1,9,1,m,82,2020-07-22 11:04:05.116739,Sub2_Trial103_0.wav,0,18,4895,-0.7269581356026972,False,5.527
2,1,9,1,m,82,2020-07-22 11:04:05.116739,Sub2_Trial103_0.wav,0,19,5534,6.901980692188641,False,5.527
2,1,9,1,m,82,2020-07-22 11:04:05.116739,Sub2_Trial103_0.wav,0,20,6245,7.330069645940803,False,5.527
2,1,9,1,m,82,2020-07-22 11:04:05.116739,Sub2_Trial103_0.wav,0,21,7037,-1.2976021774655178,False,5.527
2,1,9,1,m,82,2020-07-22 11:04:05.116739,Sub2_Trial103_0.wav,0,22,7920,3.9491350971886323,False,5.527
2,1,9,1,m,82,2020-07-22 11:04:05.116739,Sub2_Trial103_0.wav,0,23,8904,2.016770611629399,False,5.527
2,1,9,1,m,82,2020-07-22 11:04:05.116739,Sub2_Trial103_0.wav,0,24,10000,0.9305775221899979,False,5.527
2,1,9,1,m,82,2020-07-22 11:04:05.116739,Sub2_Trial239_0.wav,1,0,100,-4.45677714667576,True,5.527
2,1,9,1,m,82,2020-07-22 11:04:05.116739,Sub2_Trial239_0.wav,1,1,191,3.3438309187835173,True,5.527
2,1,9,1,m,82,2020-07-22 11:04:05.116739,Sub2_Trial239_0.wav,1,2,293,0.4206338995081294,True,5.527
2,1,9,1,m,82,2020-07-22 11:04:05.116739,Sub2_Trial239_0.wav,1,3,406,-2.9819182640975224,True,5.527
2,1,9,1,m,82,2020-07-22 11:04:05.116739,Sub2_Trial239_0.wav,1,4,533,7.778645565075253,True,5.527
2,1,9,1,m,82,2020-07-22 11:04:05.116739,Sub2_Trial239_0.wav,1,5,673,2.334192648617372,True,5.527
2,1,9,1,m,82,2020-07-22 11:04:05.116739,Sub2_Trial239_0.wav,1,6,830,0.6808202471449947,True,5.527
2,1,9,1,m,82,2020-07-22 11:04:05.116739,Sub2_Trial239_0.wav,1,7,1004,0.594098589838487,True,5.527
2,1,9,1,m,82,2020-07-22 11:04:05.116739,Sub2_Trial239_0.wav,1,8,1199,-0.6990713742667353,True,5.527
2,1,9,1,m,82,2020-07-22 11:04:05.116739,Sub2_Trial239_0.wav,1,9,1416,-7.060475140287289,True,5.527
2,1,9,1,m,82,2020-07-22 11:04:05.116739,Sub2_Trial239_0.wav,1,10,1657,-3.062315936564262,True,5.527
2,1,9,1,m,82,2020-07-22 11:04:05.116739,Sub2_Trial239_0.wav,1,11,1926,2.5203892125601985,True,5.527
2,1,9,1,m,82,2020-07-22 11:04:05.116739,Sub2_Trial239_0.wav,1,12,2226,3.1551672827480175,True,5.527
2,1,9,1,m,82,2020-07-22 11:04:05.116739,Sub2_Trial239_0.wav,1,13,2560,8.59624725612848,True,5.527
2,1,9,1,m,82,2020-07-22 11:04:05.116739,Sub2_Trial239_0.wav,1,14,2932,-3.490364991058787,True,5.527
2,1,9,1,m,82,2020-07-22 11:04:05.116739,Sub2_Trial239_0.wav,1,15,3346,5.800281432747908,True,5.527
2,1,9,1,m,82,2020-07-22 11:04:05.116739,Sub2_Trial239_0.wav,1,16,3808,6.272984307431971,True,5.527
2,1,9,1,m,82,2020-07-22 11:04:05.116739,Sub2_Trial239_0.wav,1,17,4322,4.120097078170623,True,5.527
2,1,9,1,m,82,2020-07-22 11:04:05.116739,Sub2_Trial239_0.wav,1,18,4895,-1.759281070296891,True,5.527
2,1,9,1,m,82,2020-07-22 11:04:05.116739,Sub2_Trial239_0.wav,1,19,5534,3.1085039611459164,True,5.527
2,1,9,1,m,82,2020-07-22 11:04:05.116739,Sub2_Trial239_0.wav,1,20,6245,-0.8911980582241547,True,5.527
2,1,9,1,m,82,2020-07-22 11:04:05.116739,Sub2_Trial239_0.wav,1,21,7037,-6.000579076528791,True,5.527
2,1,9,1,m,82,2020-07-22 11:04:05.116739,Sub2_Trial239_0.wav,1,22,7920,-1.056664560697833,True,5.527
2,1,9,1,m,82,2020-07-22 11:04:05.116739,Sub2_Trial239_0.wav,1,23,8904,-3.9474244253324993,True,5.527
2,1,9,1,m,82,2020-07-22 11:04:05.116739,Sub2_Trial239_0.wav,1,24,10000,2.2143449564784263,True,5.527
2,1,10,1,m,82,2020-07-22 11:04:05.116739,Sub2_Trial103_1.wav,0,0,100,-5.767926131582613,True,6.633
2,1,10,1,m,82,2020-07-22 11:04:05.116739,Sub2_Trial103_1.wav,0,1,191,11.404594298139498,True,6.633
2,1,10,1,m,82,2020-07-22 11:04:05.116739,Sub2_Trial103_1.wav,0,2,293,-0.42259931534061723,True,6.633
2,1,10,1,m,82,2020-07-22 11:04:05.116739,Sub2_Trial103_1.wav,0,3,406,-6.5352933268986195,True,6.633
2,1,10,1,m,82,2020-07-22 11:04:05.116739,Sub2_Trial103_1.wav,0,4,533,-6.543036387443014,True,6.633
2,1,10,1,m,82,2020-07-22 11:04:05.116739,Sub2_Trial103_1.wav,0,5,673,-0.40135607214334734,True,6.633
2,1,10,1,m,82,2020-07-22 11:04:05.116739,Sub2_Trial103_1.wav,0,6,830,-1.1169361986849347,True,6.633
2,1,10,1,m,82,2020-07-22 11:04:05.116739,Sub2_Trial103_1.wav,0,7,1004,-8.670142719982593,True,6.633
2,1,10,1,m,82,2020-07-22 11:04:05.116739,Sub2_Trial103_1.wav,0,8,1199,-0.314093153061644,True,6.633
2,1,10,1,m,82,2020-07-22 11:04:05.116739,Sub2_Trial103_1.wav,0,9,1416,-11.343439699111924,True,6.633
2,1,10,1,m,82,2020-07-22 11:04:05.116739,Sub2_Trial103_1.wav,0,10,1657,-0.22224362564416345,True,6.633
2,1,10,1,m,82,2020-07-22 11:04:05.116739,Sub2_Trial103_1.wav,0,11,1926,1.2689832188389576,True,6.633
2,1,10,1,m,82,2020-07-22 11:04:05.116739,Sub2_Trial103_1.wav,0,12,2226,-3.4645503694952655,True,6.633
2,1,10,1,m,82,2020-07-22 11:04:05.116739,Sub2_Trial103_1.wav,0,13,2560,-3.629499693815511,True,6.633
2,1,10,1,m,82,2020-07-22 11:04:05.116739,Sub2_Trial103_1.wav,0,14,2932,2.873575302842644,True,6.633
2,1,10,1,m,82,2020-07-22 11:04:05.116739,Sub2_Trial103_1.wav,0,15,3346,-6.003324970799527,True,6.633
2,1,10,1,m,82,2020-07-22 11:04:05.116739,Sub2_Trial103_1.wav,0,16,3808,11.042889483263746,True,6.633
2,1,10,1,m,82,2020-07-22 11:04:05.116739,Sub2_Trial103_1.wav,0,17,4322,9.827831991667598,True,6.633
2,1,10,1,m,82,2020-07-22 11:04:05.116739,Sub2_Trial103_1.wav,0,18,4895,1.8274005999211596,True,6.633
2,1,10,1,m,82,2020-07-22 11:04:05.116739,Sub2_Trial103_1.wav,0,19,5534,-8.138420385179048,True,6.633
2,1,10,1,m,82,2020-07-22 11:04:05.116739,Sub2_Trial103_1.wav,0,20,6245,5.147115697456261,True,6.633
2,1,10,1,m,82,2020-07-22 11:04:05.116739,Sub2_Trial103_1.wav,0,21,7037,-4.216764398369823,True,6.633
2,1,10,1,m,82,2020-07-22 11:04:05.116739,Sub2_Trial103_1.wav,0,22,7920,4.185959242877154,True,6.633
2,1,10,1,m,82,2020-07-22 11:04:05.116739,Sub2_Trial103_1.wav,0,23,8904,1.4138940908873172,True,6.633
2,1,10,1,m,82,2020-07-22 11:04:05.116739,Sub2_Trial103_1.wav,0,24,10000,-5.855495503378506,True,6.633
2,1,10,1,m,82,2020-07-22 11:04:05.116739,Sub2_Trial239_1.wav,1,0,100,0.8325710717590916,False,6.633
2,1,10,1,m,82,2020-07-22 11:04:05.116739,Sub2_Trial239_1.wav,1,1,191,8.915257148711163,False,6.633
2,1,10,1,m,82,2020-07-22 11:04:05.116739,Sub2_Trial239_1.wav,1,2,293,1.9539887859715857,False,6.633
2,1,10,1,m,82,2020-07-22 11:04:05.116739,Sub2_Trial239_1.wav,1,3,406,0.8641581714890607,False,6.633
2,1,10,1,m,82,2020-07-22 11:04:05.116739,Sub2_Trial239_1.wav,1,4,533,-1.2642032210925556,False,6.633
2,1,10,1,m,82,2020-07-22 11:04:05.116739,Sub2_Trial239_1.wav,1,5,673,-3.4607372083225183,False,6.633
2,1,10,1,m,82,2020-07-22 11:04:05.116739,Sub2_Trial239_1.wav,1,6,830,0.31282650542335094,False,6.633
2,1,10,1,m,82,2020-07-22 11:04:05.116739,Sub2_Trial239_1.wav,1,7,1004,-5.644159089538299,False,6.633
2,1,10,1,m,82,2020-07-22 11:04:05.116739,Sub2_Trial239_1.wav,1,8,1199,-4.183448345744619,False,6.633
2,1,10,1,m,82,2020-07-22 11:04:05.116739,Sub2_Trial239_1.wav,1,9,1416,1.5889288422782513,False,6.633
2,1,10,1,m,82,2020-07-22 11:04:05.116739,Sub2_Trial239_1.wav,1,10,1657,-1.554108724558222,False,6.633
2,1,10,1,m,82,2020-07-22 11:04:05.116739,Sub2_Trial239_1.wav,1,11,1926,0.22010764006002229,False,6.633
2,1,10,1,m,82,2020-07-22 11:04:05.116739,Sub2_Trial239_1.wav,1,12,2226,-2.7953078237385265,False,6.633
2,1,10,1,m,82,2020-07-22 11:04:05.116739,Sub2_Trial239_1.wav,1,13,2560,1.5415562376058098,False,6.633
2,1,10,1,m,82,2020-07-22 11:04:05.116739,Sub2_Trial239_1.wav,1,14,2932,-2.304758480459307,False,6.633
2,1,10,1,m,82,2020-07-22 11:04:05.116739,Sub2_Trial239_1.wav,1,15,3346,8.466104990425311,False,6.633
2,1,10,1,m,82,2020-07-22 11:04:05.116739,Sub2_Trial239_1.wav,1,16,3808,0.10154648516468176,False,6.633
2,1,10,1,m,82,2020-07-22 11:04:05.116739,Sub2_Trial239_1.wav,1,17,4322,1.6468736976641312,False,6.633
2,1,10,1,m,82,2020-07-22 11:04:05.116739,Sub2_Trial239_1.wav,1,18,4895,-4.963284803800457,False,6.633
2,1,10,1,m,82,2020-07-22 11:04:05.116739,Sub2_Trial239_1.wav,1,19,5534,7.239549853960656,False,6.633
2,1,10,1,m,82,2020-07-22 11:04:05.116739,Sub2_Trial239_1.wav,1,20,6245,-1.7590612177123597,False,6.633
2,1,10,1,m,82,2020-07-22 11:04:05.116739,Sub2_Trial239_1.wav,1,21,7037,-4.666214810141382,False,6.633
2,1,10,1,m,82,2020-07-22 11:04:05.116739,Sub2_Trial239_1.wav,1,22,7920,-2.952619299530543,False,6.633
2,1,10,1,m,82,2020-07-22 11:04:05.116739,Sub2_Trial239_1.wav,1,23,8904,-2.0931441330922116,False,6.633
2,1,10,1,m,82,2020-07-22 11:04:05.116739,Sub2_Trial239_1.wav,1,24,10000,5.338285261132473,False,6.633
2,1,11,1,m,82,2020-07-22 11:04:05.116739,Sub2_Trial104_0.wav,0,0,100,0.8779574811476794,False,3.795
2,1,11,1,m,82,2020-07-22 11:04:05.116739,Sub2_Trial104_0.wav,0,1,191,-7.482482071165011,False,3.795
2,1,11,1,m,82,2020-07-22 11:04:05.116739,Sub2_Trial104_0.wav,0,2,293,0.7568497290682754,False,3.795
2,1,11,1,m,82,2020-07-22 11:04:05.116739,Sub2_Trial104_0.wav,0,3,406,-10.93898810221691,False,3.795
2,1,11,1,m,82,2020-07-22 11:04:05.116739,Sub2_Trial104_0.wav,0,4,533,5.460721415639788,False,3.795
2,1,11,1,m,82,2020-07-22 11:04:05.116739,Sub2_Trial104_0.wav,0,5,673,-3.4772293253605664,False,3.795
2,1,11,1,m,82,2020-07-22 11:04:05.116739,Sub2_Trial104_0.wav,0,6,830,-0.8813666252994119,False,3.795
2,1,11,1,m,82,2020-07-22 11:04:05.116739,Sub2_Trial104_0.wav,0,7,1004,-8.78196687925681,False,3.795
2,1,11,1,m,82,2020-07-22 11:04:05.116739,Sub2_Trial104_0.wav,0,8,1199,1.2486316995659676,False,3.795
2,1,11,1,m,82,2020-07-22 11:04:05.116739,Sub2_Trial104_0.wav,0,9,1416,0.2034752952016533,False,3.795
2,1,11,1,m,82,2020-07-22 11:04:05.116739,Sub2_Trial104_0.wav,0,10,1657,-7.7538949096103424,False,3.795
2,1,11,1,m,82,2020-07-22 11:04:05.116739,Sub2_Trial104_0.wav,0,11,1926,-1.6878838343245548,False,3.795
2,1,11,1,m,82,2020-07-22 11:04:05.116739,Sub2_Trial104_0.wav,0,12,2226,0.8217354497930246,False,3.795
2,1,11,1,m,82,2020-07-22 11:04:05.116739,Sub2_Trial104_0.wav,0,13,2560,-0.8606564692600525,False,3.795
2,1,11,1,m,82,2020-07-22 11:04:05.116739,Sub2_Trial104_0.wav,0,14,2932,2.1513096410877846,False,3.795
2,1,11,1,m,82,2020-07-22 11:04:05.116739,Sub2_Trial104_0.wav,0,15,3346,-0.33787801184198024,False,3.795
2,1,11,1,m,82,2020-07-22 11:04:05.116739,Sub2_Trial104_0.wav,0,16,3808,1.3919194151079246,False,3.795
2,1,11,1,m,82,2020-07-22 11:04:05.116739,Sub2_Trial104_0.wav,0,17,4322,-11.033751395164357,False,3.795
2,1,11,1,m,82,2020-07-22 11:04:05.116739,Sub2_Trial104_0.wav,0,18,4895,5.807874996957788,False,3.795
2,1,11,1,m,82,2020-07-22 11:04:05.116739,Sub2_Trial104_0.wav,0,19,5534,-3.7617597352291,False,3.795
2,1,11,1,m,82,2020-07-22 11:04:05.116739,Sub2_Trial104_0.wav,0,20,6245,-7.199790965029253,False,3.795
2,1,11,1,m,82,2020-07-22 11:04:05.116739,Sub2_Trial104_0.wav,0,21,7037,-0.9308272916337185,False,3.795
2,1,11,1,m,82,2020-07-22 11:04:05.116739,Sub2_Trial104_0.wav,0,22,7920,-4.62622532143314,False,3.795
2,1,11,1,m,82,2020-07-22 11:04:05.116739,Sub2_Trial104_0.wav,0,23,8904,1.516516147467063,False,3.795
2,1,11,1,m,82,2020-07-22 11:04:05.116739,Sub2_Trial104_0.wav,0,24,10000,3.4283642515247204,False,3.795
2,1,11,1,m,82,2020-07-22 11:04:05.116739,Sub2_Trial23_0.wav,1,0,100,-4.134078890520419,True,3.795
2,1,11,1,m,82,2020-07-22 11:04:05.116739,Sub2_Trial23_0.wav,1,1,191,3.759265334329733,True,3.795
2,1,11,1,m,82,2020-07-22 11:04:05.116739,Sub2_Trial23_0.wav,1,2,293,3.182043514595251,True,3.795
2,1,11,1,m,82,2020-07-22 11:04:05.116739,Sub2_Trial23_0.wav,1,3,406,-0.5879193229307027,True,3.795
2,1,11,1,m,82,2020-07-22 11:04:05.116739,Sub2_Trial23_0.wav,1,4,533,2.6380199323031044,True,3.795
2,1,11,1,m,82,2020-07-22 11:04:05.116739,Sub2_Trial23_0.wav,1,5,673,5.094957958851812,True,3.795
2,1,11,1,m,82,2020-07-22 11:04:05.116739,Sub2_Trial23_0.wav,1,6,830,-0.5732541075295874,True,3.795
2,1,11,1,m,82,2020-07-22 11:04:05.116739,Sub2_Trial23_0.wav,1,7,1004,-0.14069783134260147,True,3.795
2,1,11,1,m,82,2020-07-22 11:04:05.116739,Sub2_Trial23_0.wav,1,8,1199,6.603271481880673,True,3.795
2,1,11,1,m,82,2020-07-22 11:04:05.116739,Sub2_Trial23_0.wav,1,9,1416,4.314911764445755,True,3.795
2,1,11,1,m,82,2020-07-22 11:04:05.116739,Sub2_Trial23_0.wav,1,10,1657,6.382370199740222,True,3.795
2,1,11,1,m,82,2020-07-22 11:04:05.116739,Sub2_Trial23_0.wav,1,11,1926,-0.23559273422077315,True,3.795
2,1,11,1,m,82,2020-07-22 11:04:05.116739,Sub2_Trial23_0.wav,1,12,2226,2.044747123015807,True,3.795
2,1,11,1,m,82,2020-07-22 11:04:05.116739,Sub2_Trial23_0.wav,1,13,2560,-5.892939922285648,True,3.795
2,1,11,1,m,82,2020-07-22 11:04:05.116739,Sub2_Trial23_0.wav,1,14,2932,0.22287171612512835,True,3.795
2,1,11,1,m,82,2020-07-22 11:04:05.116739,Sub2_Trial23_0.wav,1,15,3346,2.608847709463374,True,3.795
2,1,11,1,m,82,2020-07-22 11:04:05.116739,Sub2_Trial23_0.wav,1,16,3808,-0.5281989150340105,True,3.795
2,1,11,1,m,82,2020-07-22 11:04:05.116739,Sub2_Trial23_0.wav,1,17,4322,-3.1908136335913877,True,3.795
2,1,11,1,m,82,2020-07-22 11:04:05.116739,Sub2_Trial23_0.wav,1,18,4895,1.9086696528546514,True,3.795
2,1,11,1,m,82,2020-07-22 11:04:05.116739,Sub2_Trial23_0.wav,1,19,5534,-4.9934050994513255,True,3.795
2,1,11,1,m,82,2020-07-22 11:04:05.116739,Sub2_Trial23_0.wav,1,20,6245,-2.549876742924115,True,3.795
2,1,11,1,m,82,2020-07-22 11:04:05.116739,Sub2_Trial23_0.wav,1,21,7037,2.0754741948005457,True,3.795
2,1,11,1,m,82,2020-07-22 11:04:05.116739,Sub2_Trial23_0.wav,1,22,7920,1.726193036670456,True,3.795
2,1,11,1,m,82,2020-07-22 11:04:05.116739,Sub2_Trial23_0.wav,1,23,8904,7.837199044482507,True,3.795
2,1,11,1,m,82,2020-07-22 11:04:05.116739,Sub2_Trial23_0.wav,1,24,10000,-1.2662294796758746,True,3.795
2,1,12,1,m,82,2020-07-22 11:04:05.116739,Sub2_Trial104_1.wav,0,0,100,-0.2502688279622301,True,1.929
2,1,12,1,m,82,2020-07-22 11:04:05.116739,Sub2_Trial104_1.wav,0,1,191,4.258268393078516,True,1.929
2,1,12,1,m,82,2020-07-22 11:04:05.116739,Sub2_Trial104_1.wav,0,2,293,-9.461655593713216,True,1.929
2,1,12,1,m,82,2020-07-22 11:04:05.116739,Sub2_Trial104_1.wav,0,3,406,3.8660371272317695,True,1.929
2,1,12,1,m,82,2020-07-22 11:04:05.116739,Sub2_Trial104_1.wav,0,4,533,7.98541520682678,True,1.929
2,1,12,1,m,82,2020-07-22 11:04:05.116739,Sub2_Trial104_1.wav,0,5,673,1.1666625986762065,True,1.929
2,1,12,1,m,82,2020-07-22 11:04:05.116739,Sub2_Trial104_1.wav,0,6,830,-1.5957570909817673,True,1.929
2,1,12,1,m,82,2020-07-22 11:04:05.116739,Sub2_Trial104_1.wav,0,7,1004,8.598565658326704,True,1.929
2,1,12,1,m,82,2020-07-22 11:04:05.116739,Sub2_Trial104_1.wav,0,8,1199,2.559493596993972,True,1.929
2,1,12,1,m,82,2020-07-22 11:04:05.116739,Sub2_Trial104_1.wav,0,9,1416,-2.6681433885346495,True,1.929
2,1,12,1,m,82,2020-07-22 11:04:05.116739,Sub2_Trial104_1.wav,0,10,1657,-1.9518310916644677,True,1.929
2,1,12,1,m,82,2020-07-22 11:04:05.116739,Sub2_Trial104_1.wav,0,11,1926,7.236677945681641,True,1.929
2,1,12,1,m,82,2020-07-22 11:04:05.116739,Sub2_Trial104_1.wav,0,12,2226,8.27347376929154,True,1.929
2,1,12,1,m,82,2020-07-22 11:04:05.116739,Sub2_Trial104_1.wav,0,13,2560,1.203741950333602,True,1.929
2,1,12,1,m,82,2020-07-22 11:04:05.116739,Sub2_Trial104_1.wav,0,14,2932,3.005531682412759,True,1.929
2,1,12,1,m,82,2020-07-22 11:04:05.116739,Sub2_Trial104_1.wav,0,15,3346,-1.1231690295387866,True,1.929
2,1,12,1,m,82,2020-07-22 11:04:05.116739,Sub2_Trial104_1.wav,0,16,3808,-1.3786430207851126,True,1.929
2,1,12,1,m,82,2020-07-22 11:04:05.116739,Sub2_Trial104_1.wav,0,17,4322,4.091911820947552,True,1.929
2,1,12,1,m,82,2020-07-22 11:04:05.116739,Sub2_Trial104_1.wav,0,18,4895,-2.7191653675968626,True,1.929
2,1,12,1,m,82,2020-07-22 11:04:05.116739,Sub2_Trial104_1.wav,0,19,5534,-2.570734718678666,True,1.929
2,1,12,1,m,82,2020-07-22 11:04:05.116739,Sub2_Trial104_1.wav,0,20,6245,-0.7172977394481915,True,1.929
2,1,12,1,m,82,2020-07-22 11:04:05.116739,Sub2_Trial104_1.wav,0,21,7037,-5.590071559959126,True,1.929
2,1,12,1,m,82,2020-07-22 11:04:05.116739,Sub2_Trial104_1.wav,0,22,7920,6.3782024119370275,True,1.929
2,1,12,1,m,82,2020-07-22 11:04:05.116739,Sub2_Trial104_1.wav,0,23,8904,-6.311489289861452,True,1.929
2,1,12,1,m,82,2020-07-22 11:04:05.116739,Sub2_Trial104_1.wav,0,24,10000,-0.8001545817777443,True,1.929
2,1,12,1,m,82,2020-07-22 11:04:05.116739,Sub2_Trial23_1.wav,1,0,100,6.436875471088969,False,1.929
2,1,12,1,m,82,2020-07-22 11:04:05.116739,Sub2_Trial23_1.wav,1,1,191,3.949789903539803,False,1.929
2,1,12,1,m,82,2020-07-22 11:04:05.116739,Sub2_Trial23_1.wav,1,2,293,-2.4441909510689284,False,1.929
2,1,12,1,m,82,2020-07-22 11:04:05.116739,Sub2_Trial23_1.wav,1,3,406,7.906587331106404,False,1.929
2,1,12,1,m,82,2020-07-22 11:04:05.116739,Sub2_Trial23_1.wav,1,4,533,2.7282878234442682,False,1.929
2,1,12,1,m,82,2020-07-22 11:04:05.116739,Sub2_Trial23_1.wav,1,5,673,-0.38443662667131423,False,1.929
2,1,12,1,m,82,2020-07-22 11:04:05.116739,Sub2_Trial23_1.wav,1,6,830,2.7942045790095604,False,1.929
2,1,12,1,m,82,2020-07-22 11:04:05.116739,Sub2_Trial23_1.wav,1,7,1004,8.747664586414913,False,1.929
2,1,12,1,m,82,2020-07-22 11:04:05.116739,Sub2_Trial23_1.wav,1,8,1199,-3.0619770827046926,False,1.929
2,1,12,1,m,82,2020-07-22 11:04:05.116739,Sub2_Trial23_1.wav,1,9,1416,2.3761834102145825,False,1.929
2,1,12,1,m,82,2020-07-22 11:04:05.116739,Sub2_Trial23_1.wav,1,10,1657,5.514827229586388,False,1.929
2,1,12,1,m,82,2020-07-22 11:04:05.116739,Sub2_Trial23_1.wav,1,11,1926,10.20867486702791,False,1.929
2,1,12,1,m,82,2020-07-22 11:04:05.116739,Sub2_Trial23_1.wav,1,12,2226,-4.979714734597145,False,1.929
2,1,12,1,m,82,2020-07-22 11:04:05.116739,Sub2_Trial23_1.wav,1,13,2560,-3.1632538212692523,False,1.929
2,1,12,1,m,82,2020-07-22 11:04:05.116739,Sub2_Trial23_1.wav,1,14,2932,6.1058793006692955,False,1.929
2,1,12,1,m,82,2020-07-22 11:04:05.116739,Sub2_Trial23_1.wav,1,15,3346,-2.1942175603022203,False,1.929
2,1,12,1,m,82,2020-07-22 11:04:05.116739,Sub2_Trial23_1.wav,1,16,3808,3.228471040649474,False,1.929
2,1,12,1,m,82,2020-07-22 11:04:05.116739,Sub2_Trial23_1.wav,1,17,4322,1.9740599724942736,False,1.929
2,1,12,1,m,82,2020-07-22 11:04:05.116739,Sub2_Trial23_1.wav,1,18,4895,2.90211851223626,False,1.929
2,1,12,1,m,82,2020-07-22 11:04:05.116739,Sub2_Trial23_1.wav,1,19,5534,1.789216216236278,False,1.929
2,1,12,1,m,82,2020-07-22 11:04:05.116739,Sub2_Trial23_1.wav,1,20,6245,-3.6900944827355726,False,1.929
2,1,12,1,m,82,2020-07-22 11:04:05.116739,Sub2_Trial23_1.wav,1,21,7037,2.4086216559163556,False,1.929
2,1,12,1,m,82,2020-07-22 11:04:05.116739,Sub2_Trial23_1.wav,1,22,7920,-2.0927654609475095,False,1.929
2,1,12,1,m,82,2020-07-22 11:04:05.116739,Sub2_Trial23_1.wav,1,23,8904,1.3784369643297298,False,1.929
2,1,12,1,m,82,2020-07-22 11:04:05.116739,Sub2_Trial23_1.wav,1,24,10000,0.572696317389542,False,1.929
2,1,13,1,m,82,2020-07-22 11:04:05.116739,Sub2_Trial105_0.wav,0,0,100,-0.7600850623343974,False,4.17
2,1,13,1,m,82,2020-07-22 11:04:05.116739,Sub2_Trial105_0.wav,0,1,191,0.9046970251969494,False,4.17
2,1,13,1,m,82,2020-07-22 11:04:05.116739,Sub2_Trial105_0.wav,0,2,293,2.1238496551664765,False,4.17
2,1,13,1,m,82,2020-07-22 11:04:05.116739,Sub2_Trial105_0.wav,0,3,406,0.9566976315236939,False,4.17
2,1,13,1,m,82,2020-07-22 11:04:05.116739,Sub2_Trial105_0.wav,0,4,533,-0.789521631578254,False,4.17
2,1,13,1,m,82,2020-07-22 11:04:05.116739,Sub2_Trial105_0.wav,0,5,673,1.7364939135436956,False,4.17
2,1,13,1,m,82,2020-07-22 11:04:05.116739,Sub2_Trial105_0.wav,0,6,830,0.09881254016142557,False,4.17
2,1,13,1,m,82,2020-07-22 11:04:05.116739,Sub2_Trial105_0.wav,0,7,1004,-6.2418370762509445,False,4.17
2,1,13,1,m,82,2020-07-22 11:04:05.116739,Sub2_Trial105_0.wav,0,8,1199,-7.832139976755301,False,4.17
2,1,13,1,m,82,2020-07-22 11:04:05.116739,Sub2_Trial105_0.wav,0,9,1416,7.4979302655261755,False,4.17
2,1,13,1,m,82,2020-07-22 11:04:05.116739,Sub2_Trial105_0.wav,0,10,1657,0.41840537663940514,False,4.17
2,1,13,1,m,82,2020-07-22 11:04:05.116739,Sub2_Trial105_0.wav,0,11,1926,2.7041611111345896,False,4.17
2,1,13,1,m,82,2020-07-22 11:04:05.116739,Sub2_Trial105_0.wav,0,12,2226,-1.2494172378785648,False,4.17
2,1,13,1,m,82,2020-07-22 11:04:05.116739,Sub2_Trial105_0.wav,0,13,2560,0.9241035763369693,False,4.17
2,1,13,1,m,82,2020-07-22 11:04:05.116739,Sub2_Trial105_0.wav,0,14,2932,-0.389417004680201,False,4.17
2,1,13,1,m,82,2020-07-22 11:04:05.116739,Sub2_Trial105_0.wav,0,15,3346,-1.6845338391458862,False,4.17
2,1,13,1,m,82,2020-07-22 11:04:05.116739,Sub2_Trial105_0.wav,0,16,3808,1.5610873414210182,False,4.17
2,1,13,1,m,82,2020-07-22 11:04:05.116739,Sub2_Trial105_0.wav,0,17,4322,2.1221755597737872,False,4.17
2,1,13,1,m,82,2020-07-22 11:04:05.116739,Sub2_Trial105_0.wav,0,18,4895,-1.4543897830688794,False,4.17
2,1,13,1,m,82,2020-07-22 11:04:05.116739,Sub2_Trial105_0.wav,0,19,5534,-5.965503028921878,False,4.17
2,1,13,1,m,82,2020-07-22 11:04:05.116739,Sub2_Trial105_0.wav,0,20,6245,-8.078100716421886,False,4.17
2,1,13,1,m,82,2020-07-22 11:04:05.116739,Sub2_Trial105_0.wav,0,21,7037,11.092480783918404,False,4.17
2,1,13,1,m,82,2020-07-22 11:04:05.116739,Sub2_Trial105_0.wav,0,22,7920,-2.942588569705929,False,4.17
2,1,13,1,m,82,2020-07-22 11:04:05.116739,Sub2_Trial105_0.wav,0,23,8904,3.38082229542871,False,4.17
2,1,13,1,m,82,2020-07-22 11:04:05.116739,Sub2_Trial105_0.wav,0,24,10000,0.24841418654936964,False,4.17
2,1,13,1,m,82,2020-07-22 11:04:05.116739,Sub2_Trial240_0.wav,1,0,100,-4.427738988913933,True,4.17
2,1,13,1,m,82,2020-07-22 11:04:05.116739,Sub2_Trial240_0.wav,1,1,191,7.839811110692678,True,4.17
2,1,13,1,m,82,2020-07-22 11:04:05.116739,Sub2_Trial240_0.wav,1,2,293,6.642973706353256,True,4.17
2,1,13,1,m,82,2020-07-22 11:04:05.116739,Sub2_Trial240_0.wav,1,3,406,-4.410507987052386,True,4.17
2,1,13,1,m,82,2020-07-22 11:04:05.116739,Sub2_Trial240_0.wav,1,4,533,2.540614844210853,True,4.17
2,1,13,1,m,82,2020-07-22 11:04:05.116739,Sub2_Trial240_0.wav,1,5,673,-3.58660013809492,True,4.17
2,1,13,1,m,82,2020-07-22 11:04:05.116739,Sub2_Trial240_0.wav,1,6,830,3.247202103916131,True,4.17
2,1,13,1,m,82,2020-07-22 11:04:05.116739,Sub2_Trial240_0.wav,1,7,1004,-5.043077325424536,True,4.17
2,1,13,1,m,82,2020-07-22 11:04:05.116739,Sub2_Trial240_0.wav,1,8,1199,9.932669551924777,True,4.17
2,1,13,1,m,82,2020-07-22 11:04:05.116739,Sub2_Trial240_0.wav,1,9,1416,-4.034442006236882,True,4.17
2,1,13,1,m,82,2020-07-22 11:04:05.116739,Sub2_Trial240_0.wav,1,10,1657,1.1080390999708511,True,4.17
2,1,13,1,m,82,2020-07-22 11:04:05.116739,Sub2_Trial240_0.wav,1,11,1926,2.1906909065352407,True,4.17
2,1,13,1,m,82,2020-07-22 11:04:05.116739,Sub2_Trial240_0.wav,1,12,2226,3.2972387750472687,True,4.17
2,1,13,1,m,82,2020-07-22 11:04:05.116739,Sub2_Trial240_0.wav,1,13,2560,-1.9796606971286694,True,4.17
2,1,13,1,m,82,2020-07-22 11:04:05.116739,Sub2_Trial240_0.wav,1,14,2932,9.577908721147848,True,4.17
2,1,13,1,m,82,2020-07-22 11:04:05.116739,Sub2_Trial240_0.wav,1,15,3346,-5.836943811146567,True,4.17
2,1,13,1,m,82,2020-07-22 11:04:05.116739,Sub2_Trial240_0.wav,1,16,3808,8.711335239540075,True,4.17
2,1,13,1,m,82,2020-07-22 11:04:05.116739,Sub2_Trial240_0.wav,1,17,4322,4.430156541737778,True,4.17
2,1,13,1,m,82,2020-07-22 11:04:05.116739,Sub2_Trial240_0.wav,1,18,4895,-3.731174202422628,True,4.17
2,1,13,1,m,82,2020-07-22 11:04:05.116739,Sub2_Trial240_0.wav,1,19,5534,-2.4472304251845074,True,4.17
2,1,13,1,m,82,2020-07-22 11:04:05.116739,Sub2_Trial240_0.wav,1,20,6245,5.7491972222781325,True,4.17
2,1,13,1,m,82,2020-07-22 11:04:05.116739,Sub2_Trial240_0.wav,1,21,7037,-2.59191357453561,True,4.17
2,1,13,1,m,82,2020-07-22 11:04:05.116739,Sub2_Trial240_0.wav,1,22,7920,-4.198075779184196,True,4.17
2,1,13,1,m,82,2020-07-22 11:04:05.116739,Sub2_Trial240_0.wav,1,23,8904,0.8166530658605288,True,4.17
2,1,13,1,m,82,2020-07-22 11:04:05.116739,Sub2_Trial240_0.wav,1,24,10000,-5.396590071660081,True,4.17
2,1,14,1,m,82,2020-07-22 11:04:05.116739,Sub2_Trial105_1.wav,0,0,100,-3.3868667108580865,True,6.951
2,1,14,1,m,82,2020-07-22 11:04:05.116739,Sub2_Trial105_1.wav,0,1,191,2.2028886112474577,True,6.951
2,1,14,1,m,82,2020-07-22 11:04:05.116739,Sub2_Trial105_1.wav,0,2,293,-3.940898443410043,True,6.951
2,1,14,1,m,82,2020-07-22 11:04:05.116739,Sub2_Trial105_1.wav,0,3,406,2.248570979775325,True,6.951
2,1,14,1,m,82,2020-07-22 11:04:05.116739,Sub2_Trial105_1.wav,0,4,533,-4.696137534272911,True,6.951
2,1,14,1,m,82,2020-07-22 11:04:05.116739,Sub2_Trial105_1.wav,0,5,673,-2.332771819911217,True,6.951
2,1,14,1,m,82,2020-07-22 11:04:05.116739,Sub2_Trial105_1.wav,0,6,830,-2.665570344212856,True,6.951
2,1,14,1,m,82,2020-07-22 11:04:05.116739,Sub2_Trial105_1.wav,0,7,1004,2.4794612302493135,True,6.951
2,1,14,1,m,82,2020-07-22 11:04:05.116739,Sub2_Trial105_1.wav,0,8,1199,0.9632274543174669,True,6.951
2,1,14,1,m,82,2020-07-22 11:04:05.116739,Sub2_Trial105_1.wav,0,9,1416,-2.6555311627798925,True,6.951
2,1,14,1,m,82,2020-07-22 11:04:05.116739,Sub2_Trial105_1.wav,0,10,1657,-0.14083372570368075,True,6.951
2,1,14,1,m,82,2020-07-22 11:04:05.116739,Sub2_Trial105_1.wav,0,11,1926,2.723385713083214,True,6.951
2,1,14,1,m,82,2020-07-22 11:04:05.116739,Sub2_Trial105_1.wav,0,12,2226,-0.36216530790128076,True,6.951
2,1,14,1,m,82,2020-07-22 11:04:05.116739,Sub2_Trial105_1.wav,0,13,2560,-4.456439847034944,True,6.951
2,1,14,1,m,82,2020-07-22 11:04:05.116739,Sub2_Trial105_1.wav,0,14,2932,-10.995747759665349,True,6.951
2,1,14,1,m,82,2020-07-22 11:04:05.116739,Sub2_Trial105_1.wav,0,15,3346,-4.766860873906948,True,6.951
2,1,14,1,m,82,2020-07-22 11:04:05.116739,Sub2_Trial105_1.wav,0,16,3808,-3.983223443215722,True,6.951
2,1,14,1,m,82,2020-07-22 11:04:05.116739,Sub2_Trial105_1.wav,0,17,4322,-9.605011767973163,True,6.951
2,1,14,1,m,82,2020-07-22 11:04:05.116739,Sub2_Trial105_1.wav,0,18,4895,-1.1504725908345375,True,6.951
2,1,14,1,m,82,2020-07-22 11:04:05.116739,Sub2_Trial105_1.wav,0,19,5534,-0.16575046985068753,True,6.951
2,1,14,1,m,82,2020-07-22 11:04:05.116739,Sub2_Trial105_1.wav,0,20,6245,-9.676917152318232,True,6.951
2,1,14,1,m,82,2020-07-22 11:04:05.116739,Sub2_Trial105_1.wav,0,21,7037,-3.6180267621721347,True,6.951
2,1,14,1,m,82,2020-07-22 11:04:05.116739,Sub2_Trial105_1.wav,0,22,7920,-7.49994123478316,True,6.951
2,1,14,1,m,82,2020-07-22 11:04:05.116739,Sub2_Trial105_1.wav,0,23,8904,5.084133252288693,True,6.951
2,1,14,1,m,82,2020-07-22 11:04:05.116739,Sub2_Trial105_1.wav,0,24,10000,6.8439115797072425,True,6.951
2,1,14,1,m,82,2020-07-22 11:04:05.116739,Sub2_Trial240_1.wav,1,0,100,-4.732705493392672,False,6.951
2,1,14,1,m,82,2020-07-22 11:04:05.116739,Sub2_Trial240_1.wav,1,1,191,-6.2380592006576405,False,6.951
2,1,14,1,m,82,2020-07-22 11:04:05.116739,Sub2_Trial240_1.wav,1,2,293,-2.76592226275493,False,6.951
2,1,14,1,m,82,2020-07-22 11:04:05.116739,Sub2_Trial240_1.wav,1,3,406,-0.9434462964001147,False,6.951
2,1,14,1,m,82,2020-07-22 11:04:05.116739,Sub2_Trial240_1.wav,1,4,533,2.652940977745793,False,6.951
2,1,14,1,m,82,2020-07-22 11:04:05.116739,Sub2_Trial240_1.wav,1,5,673,-7.093993532381292,False,6.951
2,1,14,1,m,82,2020-07-22 11:04:05.116739,Sub2_Trial240_1.wav,1,6,830,-4.466169273246221,False,6.951
2,1,14,1,m,82,2020-07-22 11:04:05.116739,Sub2_Trial240_1.wav,1,7,1004,-8.157935686022487,False,6.951
2,1,14,1,m,82,2020-07-22 11:04:05.116739,Sub2_Trial240_1.wav,1,8,1199,-2.0395242186404183,False,6.951
2,1,14,1,m,82,2020-07-22 11:04:05.116739,Sub2_Trial240_1.wav,1,9,1416,-2.484260012912508,False,6.951
2,1,14,1,m,82,2020-07-22 11:04:05.116739,Sub2_Trial240_1.wav,1,10,1657,2.9352921703692414,False,6.951
2,1,14,1,m,82,2020-07-22 11:04:05.116739,Sub2_Trial240_1.wav,1,11,1926,5.9142385870418295,False,6.951
2,1,14,1,m,82,2020-07-22 11:04:05.116739,Sub2_Trial240_1.wav,1,12,2226,-6.8577119126560255,False,6.951
2,1,14,1,m,82,2020-07-22 11:04:05.116739,Sub2_Trial240_1.wav,1,13,2560,6.67929860257026,False,6.951
2,1,14,1,m,82,2020-07-22 11:04:05.116739,Sub2_Trial240_1.wav,1,14,2932,2.9885625563696405,False,6.951
2,1,14,1,m,82,2020-07-22 11:04:05.116739,Sub2_Trial240_1.wav,1,15,3346,0.3503640270310507,False,6.951
2,1,14,1,m,82,2020-07-22 11:04:05.116739,Sub2_Trial240_1.wav,1,16,3808,-5.880466738597593,False,6.951
2,1,14,1,m,82,2020-07-22 11:04:05.116739,Sub2_Trial240_1.wav,1,17,4322,-4.458939117649228,False,6.951
2,1,14,1,m,82,2020-07-22 11:04:05.116739,Sub2_Trial240_1.wav,1,18,4895,3.396290930076108,False,6.951
2,1,14,1,m,82,2020-07-22 11:04:05.116739,Sub2_Trial240_1.wav,1,19,5534,-10.226265111780169,False,6.951
2,1,14,1,m,82,2020-07-22 11:04:05.116739,Sub2_Trial240_1.wav,1,20,6245,-1.1567562265994669,False,6.951
2,1,14,1,m,82,2020-07-22 11:04:05.116739,Sub2_Trial240_1.wav,1,21,7037,-1.0370326323615393,False,6.951
2,1,14,1,m,82,2020-07-22 11:04:05.116739,Sub2_Trial240_1.wav,1,22,7920,-0.30633748562234187,False,6.951
2,1,14,1,m,82,2020-07-22 11:04:05.116739,Sub2_Trial240_1.wav,1,23,8904,6.06330338891696,False,6.951
2,1,14,1,m,82,2020-07-22 11:04:05.116739,Sub2_Trial240_1.wav,1,24,10000,-4.298908734928094,False,6.951
2,1,15,1,m,82,2020-07-22 11:04:05.116739,Sub2_Trial106_0.wav,0,0,100,-0.2869315723028092,True,2.753
2,1,15,1,m,82,2020-07-22 11:04:05.116739,Sub2_Trial106_0.wav,0,1,191,-3.725629542865537,True,2.753
2,1,15,1,m,82,2020-07-22 11:04:05.116739,Sub2_Trial106_0.wav,0,2,293,-4.073233362482351,True,2.753
2,1,15,1,m,82,2020-07-22 11:04:05.116739,Sub2_Trial106_0.wav,0,3,406,-0.04864816624344198,True,2.753
2,1,15,1,m,82,2020-07-22 11:04:05.116739,Sub2_Trial106_0.wav,0,4,533,4.6544409297341005,True,2.753
2,1,15,1,m,82,2020-07-22 11:04:05.116739,Sub2_Trial106_0.wav,0,5,673,3.8568986010774293,True,2.753
2,1,15,1,m,82,2020-07-22 11:04:05.116739,Sub2_Trial106_0.wav,0,6,830,-0.18276023032907823,True,2.753
2,1,15,1,m,82,2020-07-22 11:04:05.116739,Sub2_Trial106_0.wav,0,7,1004,-1.600700766492674,True,2.753
2,1,15,1,m,82,2020-07-22 11:04:05.116739,Sub2_Trial106_0.wav,0,8,1199,1.605214481872663,True,2.753
2,1,15,1,m,82,2020-07-22 11:04:05.116739,Sub2_Trial106_0.wav,0,9,1416,-0.852132220880166,True,2.753
2,1,15,1,m,82,2020-07-22 11:04:05.116739,Sub2_Trial106_0.wav,0,10,1657,2.2461287785807897,True,2.753
2,1,15,1,m,82,2020-07-22 11:04:05.116739,Sub2_Trial106_0.wav,0,11,1926,-6.543208497054319,True,2.753
2,1,15,1,m,82,2020-07-22 11:04:05.116739,Sub2_Trial106_0.wav,0,12,2226,7.762065452575234,True,2.753
2,1,15,1,m,82,2020-07-22 11:04:05.116739,Sub2_Trial106_0.wav,0,13,2560,-9.79128114865505,True,2.753
2,1,15,1,m,82,2020-07-22 11:04:05.116739,Sub2_Trial106_0.wav,0,14,2932,1.0382016921268002,True,2.753
2,1,15,1,m,82,2020-07-22 11:04:05.116739,Sub2_Trial106_0.wav,0,15,3346,-2.626981725204706,True,2.753
2,1,15,1,m,82,2020-07-22 11:04:05.116739,Sub2_Trial106_0.wav,0,16,3808,9.622128218842985,True,2.753
2,1,15,1,m,82,2020-07-22 11:04:05.116739,Sub2_Trial106_0.wav,0,17,4322,-4.414185422744765,True,2.753
2,1,15,1,m,82,2020-07-22 11:04:05.116739,Sub2_Trial106_0.wav,0,18,4895,-9.834183330312362,True,2.753
2,1,15,1,m,82,2020-07-22 11:04:05.116739,Sub2_Trial106_0.wav,0,19,5534,-1.742315111043911,True,2.753
2,1,15,1,m,82,2020-07-22 11:04:05.116739,Sub2_Trial106_0.wav,0,20,6245,2.6493637995732495,True,2.753
2,1,15,1,m,82,2020-07-22 11:04:05.116739,Sub2_Trial106_0.wav,0,21,7037,8.37057459626382,True,2.753
2,1,15,1,m,82,2020-07-22 11:04:05.116739,Sub2_Trial106_0.wav,0,22,7920,-0.19391305207970333,True,2.753
2,1,15,1,m,82,2020-07-22 11:04:05.116739,Sub2_Trial106_0.wav,0,23,8904,0.6789485618811842,True,2.753
2,1,15,1,m,82,2020-07-22 11:04:05.116739,Sub2_Trial106_0.wav,0,24,10000,-5.392181390350111,True,2.753
2,1,15,1,m,82,2020-07-22 11:04:05.116739,Sub2_Trial241_0.wav,1,0,100,-3.7108036180090105,False,2.753
2,1,15,1,m,82,2020-07-22 11:04:05.116739,Sub2_Trial241_0.wav,1,1,191,-2.402726274449081,False,2.753
2,1,15,1,m,82,2020-07-22 11:04:05.116739,Sub2_Trial241_0.wav,1,2,293,-10.438251965344849,False,2.753
2,1,15,1,m,82,2020-07-22 11:04:05.116739,Sub2_Trial241_0.wav,1,3,406,1.9092029206938048,False,2.753
2,1,15,1,m,82,2020-07-22 11:04:05.116739,Sub2_Trial241_0.wav,1,4,533,0.7756501969954545,False,2.753
2,1,15,1,m,82,2020-07-22 11:04:05.116739,Sub2_Trial241_0.wav,1,5,673,4.45487373390062,False,2.753
2,1,15,1,m,82,2020-07-22 11:04:05.116739,Sub2_Trial241_0.wav,1,6,830,11.179886310451003,False,2.753
2,1,15,1,m,82,2020-07-22 11:04:05.116739,Sub2_Trial241_0.wav,1,7,1004,1.5204968556389726,False,2.753
2,1,15,1,m,82,2020-07-22 11:04:05.116739,Sub2_Trial241_0.wav,1,8,1199,-7.613259744154921,False,2.753
2,1,15,1,m,82,2020-07-22 11:04:05.116739,Sub2_Trial241_0.wav,1,9,1416,-1.456463462637774,False,2.753
2,1,15,1,m,82,2020-07-22 11:04:05.116739,Sub2_Trial241_0.wav,1,10,1657,-2.382021219956502,False,2.753
2,1,15,1,m,82,2020-07-22 11:04:05.116739,Sub2_Trial241_0.wav,1,11,1926,4.0928561245938475,False,2.753
2,1,15,1,m,82,2020-07-22 11:04:05.116739,Sub2_Trial241_0.wav,1,12,2226,-0.7473493614731974,False,2.753
2,1,15,1,m,82,2020-07-22 11:04:05.116739,Sub2_Trial241_0.wav,1,13,2560,0.5500301884462342,False,2.753
2,1,15,1,m,82,2020-07-22 11:04:05.116739,Sub2_Trial241_0.wav,1,14,2932,12.429018322731535,False,2.753
2,1,15,1,m,82,2020-07-22 11:04:05.116739,Sub2_Trial241_0.wav,1,15,3346,-10.684889378858607,False,2.753
2,1,15,1,m,82,2020-07-22 11:04:05.116739,Sub2_Trial241_0.wav,1,16,3808,-2.5639557072566825,False,2.753
2,1,15,1,m,82,2020-07-22 11:04:05.116739,Sub2_Trial241_0.wav,1,17,4322,2.537923921235112,False,2.753
2,1,15,1,m,82,2020-07-22 11:04:05.116739,Sub2_Trial241_0.wav,1,18,4895,-5.533055894030735,False,2.753
2,1,15,1,m,82,2020-07-22 11:04:05.116739,Sub2_Trial241_0.wav,1,19,5534,0.34234721248026934,False,2.753
2,1,15,1,m,82,2020-07-22 11:04:05.116739,Sub2_Trial241_0.wav,1,20,6245,-6.835974328009921,False,2.753
2,1,15,1,m,82,2020-07-22 11:04:05.116739,Sub2_Trial241_0.wav,1,21,7037,0.009977660156756508,False,2.753
2,1,15,1,m,82,2020-07-22 11:04:05.116739,Sub2_Trial241_0.wav,1,22,7920,-1.3660634864937244,False,2.753
2,1,15,1,m,82,2020-07-22 11:04:05.116739,Sub2_Trial241_0.wav,1,23,8904,-3.2033301338878912,False,2.753
2,1,15,1,m,82,2020-07-22 11:04:05.116739,Sub2_Trial241_0.wav,1,24,10000,-0.7692208680440951,False,2.753
2,1,16,1,m,82,2020-07-22 11:04:05.116739,Sub2_Trial106_1.wav,0,0,100,3.135531952687553,False,1.059
2,1,16,1,m,82,2020-07-22 11:04:05.116739,Sub2_Trial106_1.wav,0,1,191,0.3678833612096646,False,1.059
2,1,16,1,m,82,2020-07-22 11:04:05.116739,Sub2_Trial106_1.wav,0,2,293,-2.544124436123496,False,1.059
2,1,16,1,m,82,2020-07-22 11:04:05.116739,Sub2_Trial106_1.wav,0,3,406,-0.2673553237251978,False,1.059
2,1,16,1,m,82,2020-07-22 11:04:05.116739,Sub2_Trial106_1.wav,0,4,533,-6.109415135869591,False,1.059
2,1,16,1,m,82,2020-07-22 11:04:05.116739,Sub2_Trial106_1.wav,0,5,673,-3.76927918840095,False,1.059
2,1,16,1,m,82,2020-07-22 11:04:05.116739,Sub2_Trial106_1.wav,0,6,830,-7.814822406103955,False,1.059
2,1,16,1,m,82,2020-07-22 11:04:05.116739,Sub2_Trial106_1.wav,0,7,1004,-5.563524369686581,False,1.059
2,1,16,1,m,82,2020-07-22 11:04:05.116739,Sub2_Trial106_1.wav,0,8,1199,-9.734548279667049,False,1.059
2,1,16,1,m,82,2020-07-22 11:04:05.116739,Sub2_Trial106_1.wav,0,9,1416,0.6940132154211697,False,1.059
2,1,16,1,m,82,2020-07-22 11:04:05.116739,Sub2_Trial106_1.wav,0,10,1657,-12.021100476159209,False,1.059
2,1,16,1,m,82,2020-07-22 11:04:05.116739,Sub2_Trial106_1.wav,0,11,1926,7.652665651821788,False,1.059
2,1,16,1,m,82,2020-07-22 11:04:05.116739,Sub2_Trial106_1.wav,0,12,2226,-1.0897842458430131,False,1.059
2,1,16,1,m,82,2020-07-22 11:04:05.116739,Sub2_Trial106_1.wav,0,13,2560,1.0062076978176302,False,1.059
2,1,16,1,m,82,2020-07-22 11:04:05.116739,Sub2_Trial106_1.wav,0,14,2932,3.1432391654421914,False,1.059
2,1,16,1,m,82,2020-07-22 11:04:05.116739,Sub2_Trial106_1.wav,0,15,3346,4.511246730053634,False,1.059
2,1,16,1,m,82,2020-07-22 11:04:05.116739,Sub2_Trial106_1.wav,0,16,3808,-5.049843247682187,False,1.059
2,1,16,1,m,82,2020-07-22 11:04:05.116739,Sub2_Trial106_1.wav,0,17,4322,-5.468695320651574,False,1.059
2,1,16,1,m,82,2020-07-22 11:04:05.116739,Sub2_Trial106_1.wav,0,18,4895,12.436708582386677,False,1.059
2,1,16,1,m,82,2020-07-22 11:04:05.116739,Sub2_Trial106_1.wav,0,19,5534,0.4052258634697206,False,1.059
2,1,16,1,m,82,2020-07-22 11:04:05.116739,Sub2_Trial106_1.wav,0,20,6245,0.7684677769097175,False,1.059
2,1,16,1,m,82,2020-07-22 11:04:05.116739,Sub2_Trial106_1.wav,0,21,7037,-5.102661210423647,False,1.059
2,1,16,1,m,82,2020-07-22 11:04:05.116739,Sub2_Trial106_1.wav,0,22,7920,10.211370351383833,False,1.059
2,1,16,1,m,82,2020-07-22 11:04:05.116739,Sub2_Trial106_1.wav,0,23,8904,4.640275979764842,False,1.059
2,1,16,1,m,82,2020-07-22 11:04:05.116739,Sub2_Trial106_1.wav,0,24,10000,7.582045652335637,False,1.059
2,1,16,1,m,82,2020-07-22 11:04:05.116739,Sub2_Trial241_1.wav,1,0,100,0.2767929505954701,True,1.059
2,1,16,1,m,82,2020-07-22 11:04:05.116739,Sub2_Trial241_1.wav,1,1,191,-2.647688882094461,True,1.059
2,1,16,1,m,82,2020-07-22 11:04:05.116739,Sub2_Trial241_1.wav,1,2,293,-4.847764810865317,True,1.059
2,1,16,1,m,82,2020-07-22 11:04:05.116739,Sub2_Trial241_1.wav,1,3,406,-3.156760670607934,True,1.059
2,1,16,1,m,82,2020-07-22 11:04:05.116739,Sub2_Trial241_1.wav,1,4,533,-9.64933816526934,True,1.059
2,1,16,1,m,82,2020-07-22 11:04:05.116739,Sub2_Trial241_1.wav,1,5,673,0.13535238244270842,True,1.059
2,1,16,1,m,82,2020-07-22 11:04:05.116739,Sub2_Trial241_1.wav,1,6,830,-1.223939328202834,True,1.059
2,1,16,1,m,82,2020-07-22 11:04:05.116739,Sub2_Trial241_1.wav,1,7,1004,6.929990791452,True,1.059
2,1,16,1,m,82,2020-07-22 11:04:05.116739,Sub2_Trial241_1.wav,1,8,1199,2.279243782489952,True,1.059
2,1,16,1,m,82,2020-07-22 11:04:05.116739,Sub2_Trial241_1.wav,1,9,1416,1.1881795613402044,True,1.059
2,1,16,1,m,82,2020-07-22 11:04:05.116739,Sub2_Trial241_1.wav,1,10,1657,-5.827968196421846,True,1.059
2,1,16,1,m,82,2020-07-22 11:04:05.116739,Sub2_Trial241_1.wav,1,11,1926,2.1647862517547307,True,1.059
2,1,16,1,m,82,2020-07-22 11:04:05.116739,Sub2_Trial241_1.wav,1,12,2226,4.5031119899666985,True,1.059
2,1,16,1,m,82,2020-07-22 11:04:05.116739,Sub2_Trial241_1.wav,1,13,2560,-0.5143712023597403,True,1.059
2,1,16,1,m,82,2020-07-22 11:04:05.116739,Sub2_Trial241_1.wav,1,14,2932,-5.855117239924903,True,1.059
2,1,16,1,m,82,2020-07-22 11:04:05.116739,Sub2_Trial241_1.wav,1,15,3346,-2.8182333902140555,True,1.059
2,1,16,1,m,82,2020-07-22 11:04:05.116739,Sub2_Trial241_1.wav,1,16,3808,-6.218198293300086,True,1.059
2,1,16,1,m,82,2020-07-22 11:04:05.116739,Sub2_Trial241_1.wav,1,17,4322,-10.744128074078084,True,1.059
2,1,16,1,m,82,2020-07-22 11:04:05.116739,Sub2_Trial241_1.wav,1,18,4895,0.2075310314430909,True,1.059
2,1,16,1,m,82,2020-07-22 11:04:05.116739,Sub2_Trial241_1.wav,1,19,5534,-1.0928550809781916,True,1.059
2,1,16,1,m,82,2020-07-22 11:04:05.116739,Sub2_Trial241_1.wav,1,20,6245,8.013810905486542,True,1.059
2,1,16,1,m,82,2020-07-22 11:04:05.116739,Sub2_Trial241_1.wav,1,21,7037,-4.395094384168973,True,1.059
2,1,16,1,m,82,2020-07-22 11:04:05.116739,Sub2_Trial241_1.wav,1,22,7920,-10.008832200413027,True,1.059
2,1,16,1,m,82,2020-07-22 11:04:05.116739,Sub2_Trial241_1.wav,1,23,8904,-5.63672071516269,True,1.059
2,1,16,1,m,82,2020-07-22 11:04:05.116739,Sub2_Trial241_1.wav,1,24,10000,7.023659484422927,True,1.059
2,1,17,1,m,82,2020-07-22 11:04:05.116739,Sub2_Trial107_0.wav,0,0,100,-3.334637454331385,True,7.168
2,1,17,1,m,82,2020-07-22 11:04:05.116739,Sub2_Trial107_0.wav,0,1,191,4.63764064356723,True,7.168
2,1,17,1,m,82,2020-07-22 11:04:05.116739,Sub2_Trial107_0.wav,0,2,293,7.865402627124519,True,7.168
2,1,17,1,m,82,2020-07-22 11:04:05.116739,Sub2_Trial107_0.wav,0,3,406,3.2957664835690386,True,7.168
2,1,17,1,m,82,2020-07-22 11:04:05.116739,Sub2_Trial107_0.wav,0,4,533,-2.8671962107213442,True,7.168
2,1,17,1,m,82,2020-07-22 11:04:05.116739,Sub2_Trial107_0.wav,0,5,673,-4.767753562870018,True,7.168
2,1,17,1,m,82,2020-07-22 11:04:05.116739,Sub2_Trial107_0.wav,0,6,830,7.876480161216871,True,7.168
2,1,17,1,m,82,2020-07-22 11:04:05.116739,Sub2_Trial107_0.wav,0,7,1004,4.48038180589741,True,7.168
2,1,17,1,m,82,2020-07-22 11:04:05.116739,Sub2_Trial107_0.wav,0,8,1199,-10.264546396865025,True,7.168
2,1,17,1,m,82,2020-07-22 11:04:05.116739,Sub2_Trial107_0.wav,0,9,1416,7.044957220187137,True,7.168
2,1,17,1,m,82,2020-07-22 11:04:05.116739,Sub2_Trial107_0.wav,0,10,1657,1.7442953865467596,True,7.168
2,1,17,1,m,82,2020-07-22 11:04:05.116739,Sub2_Trial107_0.wav,0,11,1926,-0.9313823740342352,True,7.168
2,1,17,1,m,82,2020-07-22 11:04:05.116739,Sub2_Trial107_0.wav,0,12,2226,7.947747739646277,True,7.168
2,1,17,1,m,82,2020-07-22 11:04:05.116739,Sub2_Trial107_0.wav,0,13,2560,0.43241138580440264,True,7.168
2,1,17,1,m,82,2020-07-22 11:04:05.116739,Sub2_Trial107_0.wav,0,14,2932,-0.5524652885948366,True,7.168
2,1,17,1,m,82,2020-07-22 11:04:05.116739,Sub2_Trial107_0.wav,0,15,3346,-0.38685506039273515,True,7.168
2,1,17,1,m,82,2020-07-22 11:04:05.116739,Sub2_Trial107_0.wav,0,16,3808,-3.3628995745762866,True,7.168
2,1,17,1,m,82,2020-07-22 11:04:05.116739,Sub2_Trial107_0.wav,0,17,4322,-3.182027491145305,True,7.168
2,1,17,1,m,82,2020-07-22 11:04:05.116739,Sub2_Trial107_0.wav,0,18,4895,0.16223758749275347,True,7.168
2,1,17,1,m,82,2020-07-22 11:04:05.116739,Sub2_Trial107_0.wav,0,19,5534,-2.025488005210435,True,7.168
2,1,17,1,m,82,2020-07-22 11:04:05.116739,Sub2_Trial107_0.wav,0,20,6245,1.6203412710401588,True,7.168
2,1,17,1,m,82,2020-07-22 11:04:05.116739,Sub2_Trial107_0.wav,0,21,7037,5.284389744461943,True,7.168
2,1,17,1,m,82,2020-07-22 11:04:05.116739,Sub2_Trial107_0.wav,0,22,7920,-0.39439841269294185,True,7.168
2,1,17,1,m,82,2020-07-22 11:04:05.116739,Sub2_Trial107_0.wav,0,23,8904,-1.9285874242421208,True,7.168
2,1,17,1,m,82,2020-07-22 11:04:05.116739,Sub2_Trial107_0.wav,0,24,10000,10.785422643171163,True,7.168
2,1,17,1,m,82,2020-07-22 11:04:05.116739,Sub2_Trial242_0.wav,1,0,100,1.8897112930854583,False,7.168
2,1,17,1,m,82,2020-07-22 11:04:05.116739,Sub2_Trial242_0.wav,1,1,191,-0.9000745447355158,False,7.168
2,1,17,1,m,82,2020-07-22 11:04:05.116739,Sub2_Trial242_0.wav,1,2,293,2.0462567509685816,False,7.168
2,1,17,1,m,82,2020-07-22 11:04:05.116739,Sub2_Trial242_0.wav,1,3,406,-3.3262899863750635,False,7.168
2,1,17,1,m,82,2020-07-22 11:04:05.116739,Sub2_Trial242_0.wav,1,4,533,-3.243972269805304,False,7.168
2,1,17,1,m,82,2020-07-22 11:04:05.116739,Sub2_Trial242_0.wav,1,5,673,8.21935021284688,False,7.168
2,1,17,1,m,82,2020-07-22 11:04:05.116739,Sub2_Trial242_0.wav,1,6,830,-0.793693112737105,False,7.168
2,1,17,1,m,82,2020-07-22 11:04:05.116739,Sub2_Trial242_0.wav,1,7,1004,0.47961172756270404,False,7.168
2,1,17,1,m,82,2020-07-22 11:04:05.116739,Sub2_Trial242_0.wav,1,8,1199,7.591247052854129,False,7.168
2,1,17,1,m,82,2020-07-22 11:04:05.116739,Sub2_Trial242_0.wav,1,9,1416,1.9872372825297144,False,7.168
2,1,17,1,m,82,2020-07-22 11:04:05.116739,Sub2_Trial242_0.wav,1,10,1657,-9.972641684342275,False,7.168
2,1,17,1,m,82,2020-07-22 11:04:05.116739,Sub2_Trial242_0.wav,1,11,1926,-1.7738352753779094,False,7.168
2,1,17,1,m,82,2020-07-22 11:04:05.116739,Sub2_Trial242_0.wav,1,12,2226,8.969908688027497,False,7.168
2,1,17,1,m,82,2020-07-22 11:04:05.116739,Sub2_Trial242_0.wav,1,13,2560,-1.395642613877415,False,7.168
2,1,17,1,m,82,2020-07-22 11:04:05.116739,Sub2_Trial242_0.wav,1,14,2932,3.90365170521914,False,7.168
2,1,17,1,m,82,2020-07-22 11:04:05.116739,Sub2_Trial242_0.wav,1,15,3346,-0.873547222414828,False,7.168
2,1,17,1,m,82,2020-07-22 11:04:05.116739,Sub2_Trial242_0.wav,1,16,3808,-8.97398074847818,False,7.168
2,1,17,1,m,82,2020-07-22 11:04:05.116739,Sub2_Trial242_0.wav,1,17,4322,-6.317547926956607,False,7.168
2,1,17,1,m,82,2020-07-22 11:04:05.116739,Sub2_Trial242_0.wav,1,18,4895,-0.31015211207501825,False,7.168
2,1,17,1,m,82,2020-07-22 11:04:05.116739,Sub2_Trial242_0.wav,1,19,5534,-2.6321345021639297,False,7.168
2,1,17,1,m,82,2020-07-22 11:04:05.116739,Sub2_Trial242_0.wav,1,20,6245,6.876358368030777,False,7.168
2,1,17,1,m,82,2020-07-22 11:04:05.116739,Sub2_Trial242_0.wav,1,21,7037,7.996935682950632,False,7.168
2,1,17,1,m,82,2020-07-22 11:04:05.116739,Sub2_Trial242_0.wav,1,22,7920,3.889581168679606,False,7.168
2,1,17,1,m,82,2020-07-22 11:04:05.116739,Sub2_Trial242_0.wav,1,23,8904,-2.4159392488370965,False,7.168
2,1,17,1,m,82,2020-07-22 11:04:05.116739,Sub2_Trial242_0.wav,1,24,10000,1.0458620612898226,False,7.168
2,1,18,1,m,82,2020-07-22 11:04:05.116739,Sub2_Trial107_1.wav,0,0,100,-3.727299611357851,False,4.734
2,1,18,1,m,82,2020-07-22 11:04:05.116739,Sub2_Trial107_1.wav,0,1,191,4.673089691457829,False,4.734
2,1,18,1,m,82,2020-07-22 11:04:05.116739,Sub2_Trial107_1.wav,0,2,293,-0.9657146657692016,False,4.734
2,1,18,1,m,82,2020-07-22 11:04:05.116739,Sub2_Trial107_1.wav,0,3,406,-3.0609854804260808,False,4.734
2,1,18,1,m,82,2020-07-22 11:04:05.116739,Sub2_Trial107_1.wav,0,4,533,5.9349154840446765,False,4.734
2,1,18,1,m,82,2020-07-22 11:04:05.116739,Sub2_Trial107_1.wav,0,5,673,-6.350283655374901,False,4.734
2,1,18,1,m,82,2020-07-22 11:04:05.116739,Sub2_Trial107_1.wav,0,6,830,-2.2626033570221975,False,4.734
2,1,18,1,m,82,2020-07-22 11:04:05.116739,Sub2_Trial107_1.wav,0,7,1004,-2.909074201099451,False,4.734
2,1,18,1,m,82,2020-07-22 11:04:05.116739,Sub2_Trial107_1.wav,0,8,1199,-6.798607066238649,False,4.734
2,1,18,1,m,82,2020-07-22 11:04:05.116739,Sub2_Trial107_1.wav,0,9,1416,-3.1298024832110283,False,4.734
2,1,18,1,m,82,2020-07-22 11:04:05.116739,Sub2_Trial107_1.wav,0,10,1657,-0.09497381562166121,False,4.734
2,1,18,1,m,82,2020-07-22 11:04:05.116739,Sub2_Trial107_1.wav,0,11,1926,6.559693530288531,False,4.734
2,1,18,1,m,82,2020-07-22 11:04:05.116739,Sub2_Trial107_1.wav,0,12,2226,5.599279527316982,False,4.734
2,1,18,1,m,82,2020-07-22 11:04:05.116739,Sub2_Trial107_1.wav,0,13,2560,2.293431724120379,False,4.734
2,1,18,1,m,82,2020-07-22 11:04:05.116739,Sub2_Trial107_1.wav,0,14,2932,-9.04280063821166,False,4.734
2,1,18,1,m,82,2020-07-22 11:04:05.116739,Sub2_Trial107_1.wav,0,15,3346,-2.7515475823841005,False,4.734
2,1,18,1,m,82,2020-07-22 11:04:05.116739,Sub2_Trial107_1.wav,0,16,3808,6.872681965481356,False,4.734
2,1,18,1,m,82,2020-07-22 11:04:05.116739,Sub2_Trial107_1.wav,0,17,4322,3.9371585945246297,False,4.734
2,1,18,1,m,82,2020-07-22 11:04:05.116739,Sub2_Trial107_1.wav,0,18,4895,6.611265071233182,False,4.734
2,1,18,1,m,82,2020-07-22 11:04:05.116739,Sub2_Trial107_1.wav,0,19,5534,-6.601786678646668,False,4.734
2,1,18,1,m,82,2020-07-22 11:04:05.116739,Sub2_Trial107_1.wav,0,20,6245,2.834216427798413,False,4.734
2,1,18,1,m,82,2020-07-22 11:04:05.116739,Sub2_Trial107_1.wav,0,21,7037,-6.260162314991378,False,4.734
2,1,18,1,m,82,2020-07-22 11:04:05.116739,Sub2_Trial107_1.wav,0,22,7920,-1.738625092205889,False,4.734
2,1,18,1,m,82,2020-07-22 11:04:05.116739,Sub2_Trial107_1.wav,0,23,8904,2.4600346471137478,False,4.734
2,1,18,1,m,82,2020-07-22 11:04:05.116739,Sub2_Trial107_1.wav,0,24,10000,0.16727992889643187,False,4.734
2,1,18,1,m,82,2020-07-22 11:04:05.116739,Sub2_Trial242_1.wav,1,0,100,4.107690622292887,True,4.734
2,1,18,1,m,82,2020-07-22 11:04:05.116739,Sub2_Trial242_1.wav,1,1,191,-5.541630936314544,True,4.734
2,1,18,1,m,82,2020-07-22 11:04:05.116739,Sub2_Trial242_1.wav,1,2,293,0.1358768748287566,True,4.734
2,1,18,1,m,82,2020-07-22 11:04:05.116739,Sub2_Trial242_1.wav,1,3,406,1.7024830496712848,True,4.734
2,1,18,1,m,82,2020-07-22 11:04:05.116739,Sub2_Trial242_1.wav,1,4,533,-4.657953031188244,True,4.734
2,1,18,1,m,82,2020-07-22 11:04:05.116739,Sub2_Trial242_1.wav,1,5,673,-8.576829095145001,True,4.734
2,1,18,1,m,82,2020-07-22 11:04:05.116739,Sub2_Trial242_1.wav,1,6,830,3.4318584775815064,True,4.734
2,1,18,1,m,82,2020-07-22 11:04:05.116739,Sub2_Trial242_1.wav,1,7,1004,-4.320405109600291,True,4.734
2,1,18,1,m,82,2020-07-22 11:04:05.116739,Sub2_Trial242_1.wav,1,8,1199,-9.733241087588976,True,4.734
2,1,18,1,m,82,2020-07-22 11:04:05.116739,Sub2_Trial242_1.wav,1,9,1416,-1.423073516696873,True,4.734
2,1,18,1,m,82,2020-07-22 11:04:05.116739,Sub2_Trial242_1.wav,1,10,1657,3.4157211905020106,True,4.734
2,1,18,1,m,82,2020-07-22 11:04:05.116739,Sub2_Trial242_1.wav,1,11,1926,-2.90641755822229,True,4.734
2,1,18,1,m,82,2020-07-22 11:04:05.116739,Sub2_Trial242_1.wav,1,12,2226,-2.523679718105247,True,4.734
2,1,18,1,m,82,2020-07-22 11:04:05.116739,Sub2_Trial242_1.wav,1,13,2560,0.76587432154232,True,4.734
2,1,18,1,m,82,2020-07-22 11:04:05.116739,Sub2_Trial242_1.wav,1,14,2932,-5.452926655923597,True,4.734
2,1,18,1,m,82,2020-07-22 11:04:05.116739,Sub2_Trial242_1.wav,1,15,3346,0.7884025191119397,True,4.734
2,1,18,1,m,82,2020-07-22 11:04:05.116739,Sub2_Trial242_1.wav,1,16,3808,-1.6582447219599632,True,4.734
2,1,18,1,m,82,2020-07-22 11:04:05.116739,Sub2_Trial242_1.wav,1,17,4322,-0.1509545631836715,True,4.734
2,1,18,1,m,82,2020-07-22 11:04:05.116739,Sub2_Trial242_1.wav,1,18,4895,3.443068594758113,True,4.734
2,1,18,1,m,82,2020-07-22 11:04:05.116739,Sub2_Trial242_1.wav,1,19,5534,-1.4941876743154612,True,4.734
2,1,18,1,m,82,2020-07-22 11:04:05.116739,Sub2_Trial242_1.wav,1,20,6245,10.535855975869,True,4.734
2,1,18,1,m,82,2020-07-22 11:04:05.116739,Sub2_Trial242_1.wav,1,21,7037,7.859168863264369,True,4.734
2,1,18,1,m,82,2020-07-22 11:04:05.116739,Sub2_Trial242_1.wav,1,22,7920,-0.9768893008655783,True,4.734
2,1,18,1,m,82,2020-07-22 11:04:05.116739,Sub2_Trial242_1.wav,1,23,8904,-1.587802136851353,True,4.734
2,1,18,1,m,82,2020-07-22 11:04:05.116739,Sub2_Trial242_1.wav,1,24,10000,0.9462354412172648,True,4.734
2,1,19,1,m,82,2020-07-22 11:04:05.116739,Sub2_Trial108_0.wav,0,0,100,-2.2982754979214497,True,9.125
2,1,19,1,m,82,2020-07-22 11:04:05.116739,Sub2_Trial108_0.wav,0,1,191,0.4759209486865519,True,9.125
2,1,19,1,m,82,2020-07-22 11:04:05.116739,Sub2_Trial108_0.wav,0,2,293,-9.294121907289513,True,9.125
2,1,19,1,m,82,2020-07-22 11:04:05.116739,Sub2_Trial108_0.wav,0,3,406,4.20023808120648,True,9.125
2,1,19,1,m,82,2020-07-22 11:04:05.116739,Sub2_Trial108_0.wav,0,4,533,1.9426580517939998,True,9.125
2,1,19,1,m,82,2020-07-22 11:04:05.116739,Sub2_Trial108_0.wav,0,5,673,1.2619230895074414,True,9.125
2,1,19,1,m,82,2020-07-22 11:04:05.116739,Sub2_Trial108_0.wav,0,6,830,4.683308278095456,True,9.125
2,1,19,1,m,82,2020-07-22 11:04:05.116739,Sub2_Trial108_0.wav,0,7,1004,1.5630241388992165,True,9.125
2,1,19,1,m,82,2020-07-22 11:04:05.116739,Sub2_Trial108_0.wav,0,8,1199,0.30737811719714714,True,9.125
2,1,19,1,m,82,2020-07-22 11:04:05.116739,Sub2_Trial108_0.wav,0,9,1416,-6.023771737206119,True,9.125
2,1,19,1,m,82,2020-07-22 11:04:05.116739,Sub2_Trial108_0.wav,0,10,1657,-11.27858997290911,True,9.125
2,1,19,1,m,82,2020-07-22 11:04:05.116739,Sub2_Trial108_0.wav,0,11,1926,-6.0300289709806005,True,9.125
2,1,19,1,m,82,2020-07-22 11:04:05.116739,Sub2_Trial108_0.wav,0,12,2226,-11.315670924337942,True,9.125
2,1,19,1,m,82,2020-07-22 11:04:05.116739,Sub2_Trial108_0.wav,0,13,2560,2.125560973865159,True,9.125
2,1,19,1,m,82,2020-07-22 11:04:05.116739,Sub2_Trial108_0.wav,0,14,2932,4.297895488158188,True,9.125
2,1,19,1,m,82,2020-07-22 11:04:05.116739,Sub2_Trial108_0.wav,0,15,3346,2.532217812560976,True,9.125
2,1,19,1,m,82,2020-07-22 11:04:05.116739,Sub2_Trial108_0.wav,0,16,3808,3.616697452084645,True,9.125
2,1,19,1,m,82,2020-07-22 11:04:05.116739,Sub2_Trial108_0.wav,0,17,4322,-0.6084666514289017,True,9.125
2,1,19,1,m,82,2020-07-22 11:04:05.116739,Sub2_Trial108_0.wav,0,18,4895,-3.867119303113885,True,9.125
2,1,19,1,m,82,2020-07-22 11:04:05.116739,Sub2_Trial108_0.wav,0,19,5534,4.477610820731326,True,9.125
2,1,19,1,m,82,2020-07-22 11:04:05.116739,Sub2_Trial108_0.wav,0,20,6245,-4.333455947470103,True,9.125
2,1,19,1,m,82,2020-07-22 11:04:05.116739,Sub2_Trial108_0.wav,0,21,7037,-9.495838757361344,True,9.125
2,1,19,1,m,82,2020-07-22 11:04:05.116739,Sub2_Trial108_0.wav,0,22,7920,-6.260373528788751,True,9.125
2,1,19,1,m,82,2020-07-22 11:04:05.116739,Sub2_Trial108_0.wav,0,23,8904,-5.898587796608762,True,9.125
2,1,19,1,m,82,2020-07-22 11:04:05.116739,Sub2_Trial108_0.wav,0,24,10000,-5.77910765918266,True,9.125
2,1,19,1,m,82,2020-07-22 11:04:05.116739,Sub2_Trial243_0.wav,1,0,100,-7.421416195611609,False,9.125
2,1,19,1,m,82,2020-07-22 11:04:05.116739,Sub2_Trial243_0.wav,1,1,191,-0.7765322876769052,False,9.125
2,1,19,1,m,82,2020-07-22 11:04:05.116739,Sub2_Trial243_0.wav,1,2,293,2.680564620253926,False,9.125
2,1,19,1,m,82,2020-07-22 11:04:05.116739,Sub2_Trial243_0.wav,1,3,406,-2.9695228941032106,False,9.125
2,1,19,1,m,82,2020-07-22 11:04:05.116739,Sub2_Trial243_0.wav,1,4,533,-2.6004636287236265,False,9.125
2,1,19,1,m,82,2020-07-22 11:04:05.116739,Sub2_Trial243_0.wav,1,5,673,4.4174464845936665,False,9.125
2,1,19,1,m,82,2020-07-22 11:04:05.116739,Sub2_Trial243_0.wav,1,6,830,10.504669687772912,False,9.125
2,1,19,1,m,82,2020-07-22 11:04:05.116739,Sub2_Trial243_0.wav,1,7,1004,0.24372903669176746,False,9.125
2,1,19,1,m,82,2020-07-22 11:04:05.116739,Sub2_Trial243_0.wav,1,8,1199,-3.6801479981322887,False,9.125
2,1,19,1,m,82,2020-07-22 11:04:05.116739,Sub2_Trial243_0.wav,1,9,1416,-3.0222444736237044,False,9.125
2,1,19,1,m,82,2020-07-22 11:04:05.116739,Sub2_Trial243_0.wav,1,10,1657,9.517127594801666,False,9.125
