,subj,trial,block,sex,age,date,stim,stim_order,filter,filter_freq,filter_gain,response,rt,session
0,1,0,0,f,47,2021-01-11 14:41:51.030120,Sub1_Trial118_0.wav,0,0,100,-0.441281527575062,False,1.345,1
1,1,0,0,f,47,2021-01-11 14:41:51.030120,Sub1_Trial118_0.wav,0,1,191,1.633049698314048,False,1.345,1
2,1,0,0,f,47,2021-01-11 14:41:51.030120,Sub1_Trial118_0.wav,0,2,293,-2.9227846462009244,False,1.345,1
3,1,0,0,f,47,2021-01-11 14:41:51.030120,Sub1_Trial118_0.wav,0,3,406,-3.781038139405703,False,1.345,1
4,1,0,0,f,47,2021-01-11 14:41:51.030120,Sub1_Trial118_0.wav,0,4,533,-0.31764285436023226,False,1.345,1
5,1,0,0,f,47,2021-01-11 14:41:51.030120,Sub1_Trial118_0.wav,0,5,673,-4.609576161847998,False,1.345,1
6,1,0,0,f,47,2021-01-11 14:41:51.030120,Sub1_Trial118_0.wav,0,6,830,-5.420777179439619,False,1.345,1
7,1,0,0,f,47,2021-01-11 14:41:51.030120,Sub1_Trial118_0.wav,0,7,1004,-1.3167226504099216,False,1.345,1
8,1,0,0,f,47,2021-01-11 14:41:51.030120,Sub1_Trial118_0.wav,0,8,1199,-1.0980327697779413,False,1.345,1
9,1,0,0,f,47,2021-01-11 14:41:51.030120,Sub1_Trial118_0.wav,0,9,1416,11.869044887504009,False,1.345,1
10,1,0,0,f,47,2021-01-11 14:41:51.030120,Sub1_Trial118_0.wav,0,10,1657,3.00644771964871,False,1.345,1
11,1,0,0,f,47,2021-01-11 14:41:51.030120,Sub1_Trial118_0.wav,0,11,1926,6.279664324538293,False,1.345,1
12,1,0,0,f,47,2021-01-11 14:41:51.030120,Sub1_Trial118_0.wav,0,12,2226,1.6369506871230373,False,1.345,1
13,1,0,0,f,47,2021-01-11 14:41:51.030120,Sub1_Trial118_0.wav,0,13,2560,-0.2863938469686463,False,1.345,1
14,1,0,0,f,47,2021-01-11 14:41:51.030120,Sub1_Trial118_0.wav,0,14,2932,-1.893260961714761,False,1.345,1
15,1,0,0,f,47,2021-01-11 14:41:51.030120,Sub1_Trial118_0.wav,0,15,3346,-8.016617413510437,False,1.345,1
16,1,0,0,f,47,2021-01-11 14:41:51.030120,Sub1_Trial118_0.wav,0,16,3808,-5.203574240211209,False,1.345,1
17,1,0,0,f,47,2021-01-11 14:41:51.030120,Sub1_Trial118_0.wav,0,17,4322,-1.7843143076057333,False,1.345,1
18,1,0,0,f,47,2021-01-11 14:41:51.030120,Sub1_Trial118_0.wav,0,18,4895,-3.5519889945017558,False,1.345,1
19,1,0,0,f,47,2021-01-11 14:41:51.030120,Sub1_Trial118_0.wav,0,19,5534,0.09191101197474412,False,1.345,1
20,1,0,0,f,47,2021-01-11 14:41:51.030120,Sub1_Trial118_0.wav,0,20,6245,-3.4937769246917303,False,1.345,1
21,1,0,0,f,47,2021-01-11 14:41:51.030120,Sub1_Trial118_0.wav,0,21,7037,2.7003785434365497,False,1.345,1
22,1,0,0,f,47,2021-01-11 14:41:51.030120,Sub1_Trial118_0.wav,0,22,7920,-11.080684311064443,False,1.345,1
23,1,0,0,f,47,2021-01-11 14:41:51.030120,Sub1_Trial118_0.wav,0,23,8904,7.3317093080157125,False,1.345,1
24,1,0,0,f,47,2021-01-11 14:41:51.030120,Sub1_Trial118_0.wav,0,24,10000,4.538783266324434,False,1.345,1
25,1,0,0,f,47,2021-01-11 14:41:51.030120,Sub1_Trial136_0.wav,1,0,100,-2.115456810759275,True,1.345,1
26,1,0,0,f,47,2021-01-11 14:41:51.030120,Sub1_Trial136_0.wav,1,1,191,-1.1430834086469381,True,1.345,1
27,1,0,0,f,47,2021-01-11 14:41:51.030120,Sub1_Trial136_0.wav,1,2,293,4.224943881144912,True,1.345,1
28,1,0,0,f,47,2021-01-11 14:41:51.030120,Sub1_Trial136_0.wav,1,3,406,1.0020463536699893,True,1.345,1
29,1,0,0,f,47,2021-01-11 14:41:51.030120,Sub1_Trial136_0.wav,1,4,533,2.274300543668488,True,1.345,1
30,1,0,0,f,47,2021-01-11 14:41:51.030120,Sub1_Trial136_0.wav,1,5,673,11.760001582294752,True,1.345,1
31,1,0,0,f,47,2021-01-11 14:41:51.030120,Sub1_Trial136_0.wav,1,6,830,-6.285531100854528,True,1.345,1
32,1,0,0,f,47,2021-01-11 14:41:51.030120,Sub1_Trial136_0.wav,1,7,1004,4.179413727099835,True,1.345,1
33,1,0,0,f,47,2021-01-11 14:41:51.030120,Sub1_Trial136_0.wav,1,8,1199,-6.5323539602359295,True,1.345,1
34,1,0,0,f,47,2021-01-11 14:41:51.030120,Sub1_Trial136_0.wav,1,9,1416,-6.8341135027584246,True,1.345,1
35,1,0,0,f,47,2021-01-11 14:41:51.030120,Sub1_Trial136_0.wav,1,10,1657,1.2961554869146426,True,1.345,1
36,1,0,0,f,47,2021-01-11 14:41:51.030120,Sub1_Trial136_0.wav,1,11,1926,-9.938688331541927,True,1.345,1
37,1,0,0,f,47,2021-01-11 14:41:51.030120,Sub1_Trial136_0.wav,1,12,2226,-0.9853889070787224,True,1.345,1
38,1,0,0,f,47,2021-01-11 14:41:51.030120,Sub1_Trial136_0.wav,1,13,2560,5.695849697951231,True,1.345,1
39,1,0,0,f,47,2021-01-11 14:41:51.030120,Sub1_Trial136_0.wav,1,14,2932,4.469515275138244,True,1.345,1
40,1,0,0,f,47,2021-01-11 14:41:51.030120,Sub1_Trial136_0.wav,1,15,3346,4.182321886981917,True,1.345,1
41,1,0,0,f,47,2021-01-11 14:41:51.030120,Sub1_Trial136_0.wav,1,16,3808,-2.56538887207775,True,1.345,1
42,1,0,0,f,47,2021-01-11 14:41:51.030120,Sub1_Trial136_0.wav,1,17,4322,-5.379104719287588,True,1.345,1
43,1,0,0,f,47,2021-01-11 14:41:51.030120,Sub1_Trial136_0.wav,1,18,4895,3.077537520728803,True,1.345,1
44,1,0,0,f,47,2021-01-11 14:41:51.030120,Sub1_Trial136_0.wav,1,19,5534,3.1999462587896894,True,1.345,1
45,1,0,0,f,47,2021-01-11 14:41:51.030120,Sub1_Trial136_0.wav,1,20,6245,-6.551761051158475,True,1.345,1
46,1,0,0,f,47,2021-01-11 14:41:51.030120,Sub1_Trial136_0.wav,1,21,7037,-1.2126327991300634,True,1.345,1
47,1,0,0,f,47,2021-01-11 14:41:51.030120,Sub1_Trial136_0.wav,1,22,7920,2.048473792435411,True,1.345,1
48,1,0,0,f,47,2021-01-11 14:41:51.030120,Sub1_Trial136_0.wav,1,23,8904,0.1009745767564638,True,1.345,1
49,1,0,0,f,47,2021-01-11 14:41:51.030120,Sub1_Trial136_0.wav,1,24,10000,-0.7169763767523375,True,1.345,1
50,1,1,0,f,47,2021-01-11 14:41:51.030120,Sub1_Trial131_0.wav,0,0,100,-1.7808269146834619,True,1.705,1
51,1,1,0,f,47,2021-01-11 14:41:51.030120,Sub1_Trial131_0.wav,0,1,191,-10.986596305364078,True,1.705,1
52,1,1,0,f,47,2021-01-11 14:41:51.030120,Sub1_Trial131_0.wav,0,2,293,-6.8457147266686285,True,1.705,1
53,1,1,0,f,47,2021-01-11 14:41:51.030120,Sub1_Trial131_0.wav,0,3,406,-8.29592726177399,True,1.705,1
54,1,1,0,f,47,2021-01-11 14:41:51.030120,Sub1_Trial131_0.wav,0,4,533,3.1769188297871103,True,1.705,1
55,1,1,0,f,47,2021-01-11 14:41:51.030120,Sub1_Trial131_0.wav,0,5,673,4.615891580669695,True,1.705,1
56,1,1,0,f,47,2021-01-11 14:41:51.030120,Sub1_Trial131_0.wav,0,6,830,-3.7672933482847113,True,1.705,1
57,1,1,0,f,47,2021-01-11 14:41:51.030120,Sub1_Trial131_0.wav,0,7,1004,-0.12995107440603268,True,1.705,1
58,1,1,0,f,47,2021-01-11 14:41:51.030120,Sub1_Trial131_0.wav,0,8,1199,-1.0138590119685458,True,1.705,1
59,1,1,0,f,47,2021-01-11 14:41:51.030120,Sub1_Trial131_0.wav,0,9,1416,-1.0410351700191387,True,1.705,1
60,1,1,0,f,47,2021-01-11 14:41:51.030120,Sub1_Trial131_0.wav,0,10,1657,-0.1020573968802936,True,1.705,1
61,1,1,0,f,47,2021-01-11 14:41:51.030120,Sub1_Trial131_0.wav,0,11,1926,5.0153266816841935,True,1.705,1
62,1,1,0,f,47,2021-01-11 14:41:51.030120,Sub1_Trial131_0.wav,0,12,2226,-10.257221339107797,True,1.705,1
63,1,1,0,f,47,2021-01-11 14:41:51.030120,Sub1_Trial131_0.wav,0,13,2560,7.3740051113115825,True,1.705,1
64,1,1,0,f,47,2021-01-11 14:41:51.030120,Sub1_Trial131_0.wav,0,14,2932,-10.73010627369352,True,1.705,1
65,1,1,0,f,47,2021-01-11 14:41:51.030120,Sub1_Trial131_0.wav,0,15,3346,-8.545147265473663,True,1.705,1
66,1,1,0,f,47,2021-01-11 14:41:51.030120,Sub1_Trial131_0.wav,0,16,3808,3.901650063997327,True,1.705,1
67,1,1,0,f,47,2021-01-11 14:41:51.030120,Sub1_Trial131_0.wav,0,17,4322,-5.044304447712867,True,1.705,1
68,1,1,0,f,47,2021-01-11 14:41:51.030120,Sub1_Trial131_0.wav,0,18,4895,-0.9780318031107784,True,1.705,1
69,1,1,0,f,47,2021-01-11 14:41:51.030120,Sub1_Trial131_0.wav,0,19,5534,0.6794547007768749,True,1.705,1
70,1,1,0,f,47,2021-01-11 14:41:51.030120,Sub1_Trial131_0.wav,0,20,6245,1.9038308624699616,True,1.705,1
71,1,1,0,f,47,2021-01-11 14:41:51.030120,Sub1_Trial131_0.wav,0,21,7037,-9.243505387431576,True,1.705,1
72,1,1,0,f,47,2021-01-11 14:41:51.030120,Sub1_Trial131_0.wav,0,22,7920,2.1134458649163395,True,1.705,1
73,1,1,0,f,47,2021-01-11 14:41:51.030120,Sub1_Trial131_0.wav,0,23,8904,-0.8605829620888906,True,1.705,1
74,1,1,0,f,47,2021-01-11 14:41:51.030120,Sub1_Trial131_0.wav,0,24,10000,-4.551822243568276,True,1.705,1
75,1,1,0,f,47,2021-01-11 14:41:51.030120,Sub1_Trial8_1.wav,1,0,100,0.4765109769859369,False,1.705,1
76,1,1,0,f,47,2021-01-11 14:41:51.030120,Sub1_Trial8_1.wav,1,1,191,-0.8048079362647635,False,1.705,1
77,1,1,0,f,47,2021-01-11 14:41:51.030120,Sub1_Trial8_1.wav,1,2,293,-0.6678321479393499,False,1.705,1
78,1,1,0,f,47,2021-01-11 14:41:51.030120,Sub1_Trial8_1.wav,1,3,406,1.1097431630614434,False,1.705,1
79,1,1,0,f,47,2021-01-11 14:41:51.030120,Sub1_Trial8_1.wav,1,4,533,0.5273011781726027,False,1.705,1
80,1,1,0,f,47,2021-01-11 14:41:51.030120,Sub1_Trial8_1.wav,1,5,673,0.6371472738602177,False,1.705,1
81,1,1,0,f,47,2021-01-11 14:41:51.030120,Sub1_Trial8_1.wav,1,6,830,0.5723394520279226,False,1.705,1
82,1,1,0,f,47,2021-01-11 14:41:51.030120,Sub1_Trial8_1.wav,1,7,1004,-5.998948912944447,False,1.705,1
83,1,1,0,f,47,2021-01-11 14:41:51.030120,Sub1_Trial8_1.wav,1,8,1199,-2.63644322008872,False,1.705,1
84,1,1,0,f,47,2021-01-11 14:41:51.030120,Sub1_Trial8_1.wav,1,9,1416,0.4777681450625504,False,1.705,1
85,1,1,0,f,47,2021-01-11 14:41:51.030120,Sub1_Trial8_1.wav,1,10,1657,-1.9254860308383024,False,1.705,1
86,1,1,0,f,47,2021-01-11 14:41:51.030120,Sub1_Trial8_1.wav,1,11,1926,2.84835907995118,False,1.705,1
87,1,1,0,f,47,2021-01-11 14:41:51.030120,Sub1_Trial8_1.wav,1,12,2226,-2.522709472389986,False,1.705,1
88,1,1,0,f,47,2021-01-11 14:41:51.030120,Sub1_Trial8_1.wav,1,13,2560,-1.8873939239270807,False,1.705,1
89,1,1,0,f,47,2021-01-11 14:41:51.030120,Sub1_Trial8_1.wav,1,14,2932,1.4317991278713438,False,1.705,1
90,1,1,0,f,47,2021-01-11 14:41:51.030120,Sub1_Trial8_1.wav,1,15,3346,4.305460487957789,False,1.705,1
91,1,1,0,f,47,2021-01-11 14:41:51.030120,Sub1_Trial8_1.wav,1,16,3808,3.6379550503091056,False,1.705,1
92,1,1,0,f,47,2021-01-11 14:41:51.030120,Sub1_Trial8_1.wav,1,17,4322,8.814819080492773,False,1.705,1
93,1,1,0,f,47,2021-01-11 14:41:51.030120,Sub1_Trial8_1.wav,1,18,4895,0.03976299870852317,False,1.705,1
94,1,1,0,f,47,2021-01-11 14:41:51.030120,Sub1_Trial8_1.wav,1,19,5534,1.9174536226487997,False,1.705,1
95,1,1,0,f,47,2021-01-11 14:41:51.030120,Sub1_Trial8_1.wav,1,20,6245,-0.3181912456270056,False,1.705,1
96,1,1,0,f,47,2021-01-11 14:41:51.030120,Sub1_Trial8_1.wav,1,21,7037,1.0085555693905894,False,1.705,1
97,1,1,0,f,47,2021-01-11 14:41:51.030120,Sub1_Trial8_1.wav,1,22,7920,-3.5296618765090377,False,1.705,1
98,1,1,0,f,47,2021-01-11 14:41:51.030120,Sub1_Trial8_1.wav,1,23,8904,-2.0732383173096145,False,1.705,1
99,1,1,0,f,47,2021-01-11 14:41:51.030120,Sub1_Trial8_1.wav,1,24,10000,-3.274041920961173,False,1.705,1
100,1,2,0,f,47,2021-01-11 14:41:51.030120,Sub1_Trial179_1.wav,0,0,100,-0.3012620732381977,False,0.508,1
101,1,2,0,f,47,2021-01-11 14:41:51.030120,Sub1_Trial179_1.wav,0,1,191,6.327943227446879,False,0.508,1
102,1,2,0,f,47,2021-01-11 14:41:51.030120,Sub1_Trial179_1.wav,0,2,293,-3.2297994260247225,False,0.508,1
103,1,2,0,f,47,2021-01-11 14:41:51.030120,Sub1_Trial179_1.wav,0,3,406,-3.9579200963562537,False,0.508,1
104,1,2,0,f,47,2021-01-11 14:41:51.030120,Sub1_Trial179_1.wav,0,4,533,2.0063293490206355,False,0.508,1
105,1,2,0,f,47,2021-01-11 14:41:51.030120,Sub1_Trial179_1.wav,0,5,673,-1.6588571754962582,False,0.508,1
106,1,2,0,f,47,2021-01-11 14:41:51.030120,Sub1_Trial179_1.wav,0,6,830,-9.228298312810619,False,0.508,1
107,1,2,0,f,47,2021-01-11 14:41:51.030120,Sub1_Trial179_1.wav,0,7,1004,5.614091572930444,False,0.508,1
108,1,2,0,f,47,2021-01-11 14:41:51.030120,Sub1_Trial179_1.wav,0,8,1199,2.7068217006161137,False,0.508,1
109,1,2,0,f,47,2021-01-11 14:41:51.030120,Sub1_Trial179_1.wav,0,9,1416,4.7040492310298045,False,0.508,1
110,1,2,0,f,47,2021-01-11 14:41:51.030120,Sub1_Trial179_1.wav,0,10,1657,9.108705509625652,False,0.508,1
111,1,2,0,f,47,2021-01-11 14:41:51.030120,Sub1_Trial179_1.wav,0,11,1926,-6.0056591344103,False,0.508,1
112,1,2,0,f,47,2021-01-11 14:41:51.030120,Sub1_Trial179_1.wav,0,12,2226,3.4945787411231675,False,0.508,1
113,1,2,0,f,47,2021-01-11 14:41:51.030120,Sub1_Trial179_1.wav,0,13,2560,1.3585924209198144,False,0.508,1
114,1,2,0,f,47,2021-01-11 14:41:51.030120,Sub1_Trial179_1.wav,0,14,2932,0.5465955995246178,False,0.508,1
115,1,2,0,f,47,2021-01-11 14:41:51.030120,Sub1_Trial179_1.wav,0,15,3346,-2.0861127754501414,False,0.508,1
116,1,2,0,f,47,2021-01-11 14:41:51.030120,Sub1_Trial179_1.wav,0,16,3808,-3.641573705300871,False,0.508,1
117,1,2,0,f,47,2021-01-11 14:41:51.030120,Sub1_Trial179_1.wav,0,17,4322,-0.8252983482289888,False,0.508,1
118,1,2,0,f,47,2021-01-11 14:41:51.030120,Sub1_Trial179_1.wav,0,18,4895,-4.6661537415089605,False,0.508,1
119,1,2,0,f,47,2021-01-11 14:41:51.030120,Sub1_Trial179_1.wav,0,19,5534,2.4221291659772666,False,0.508,1
120,1,2,0,f,47,2021-01-11 14:41:51.030120,Sub1_Trial179_1.wav,0,20,6245,-11.358421507428694,False,0.508,1
121,1,2,0,f,47,2021-01-11 14:41:51.030120,Sub1_Trial179_1.wav,0,21,7037,-5.134078775224991,False,0.508,1
122,1,2,0,f,47,2021-01-11 14:41:51.030120,Sub1_Trial179_1.wav,0,22,7920,-7.608703016811765,False,0.508,1
123,1,2,0,f,47,2021-01-11 14:41:51.030120,Sub1_Trial179_1.wav,0,23,8904,-11.875337316599078,False,0.508,1
124,1,2,0,f,47,2021-01-11 14:41:51.030120,Sub1_Trial179_1.wav,0,24,10000,1.3848001228513775,False,0.508,1
125,1,2,0,f,47,2021-01-11 14:41:51.030120,Sub1_Trial63_1.wav,1,0,100,2.455534643808305,True,0.508,1
126,1,2,0,f,47,2021-01-11 14:41:51.030120,Sub1_Trial63_1.wav,1,1,191,3.959107120839616,True,0.508,1
127,1,2,0,f,47,2021-01-11 14:41:51.030120,Sub1_Trial63_1.wav,1,2,293,4.209967167392707,True,0.508,1
128,1,2,0,f,47,2021-01-11 14:41:51.030120,Sub1_Trial63_1.wav,1,3,406,6.089251300112883,True,0.508,1
129,1,2,0,f,47,2021-01-11 14:41:51.030120,Sub1_Trial63_1.wav,1,4,533,0.39153648448211104,True,0.508,1
130,1,2,0,f,47,2021-01-11 14:41:51.030120,Sub1_Trial63_1.wav,1,5,673,-3.1853221743689843,True,0.508,1
131,1,2,0,f,47,2021-01-11 14:41:51.030120,Sub1_Trial63_1.wav,1,6,830,-2.160784628755372,True,0.508,1
132,1,2,0,f,47,2021-01-11 14:41:51.030120,Sub1_Trial63_1.wav,1,7,1004,-0.4244694830817571,True,0.508,1
133,1,2,0,f,47,2021-01-11 14:41:51.030120,Sub1_Trial63_1.wav,1,8,1199,-3.953749761888591,True,0.508,1
134,1,2,0,f,47,2021-01-11 14:41:51.030120,Sub1_Trial63_1.wav,1,9,1416,-5.966676375552707,True,0.508,1
135,1,2,0,f,47,2021-01-11 14:41:51.030120,Sub1_Trial63_1.wav,1,10,1657,2.134590509896096,True,0.508,1
136,1,2,0,f,47,2021-01-11 14:41:51.030120,Sub1_Trial63_1.wav,1,11,1926,1.734560314103733,True,0.508,1
137,1,2,0,f,47,2021-01-11 14:41:51.030120,Sub1_Trial63_1.wav,1,12,2226,2.4620497961013106,True,0.508,1
138,1,2,0,f,47,2021-01-11 14:41:51.030120,Sub1_Trial63_1.wav,1,13,2560,2.6133032653075094,True,0.508,1
139,1,2,0,f,47,2021-01-11 14:41:51.030120,Sub1_Trial63_1.wav,1,14,2932,3.5271788951708865,True,0.508,1
140,1,2,0,f,47,2021-01-11 14:41:51.030120,Sub1_Trial63_1.wav,1,15,3346,5.247916942042541,True,0.508,1
141,1,2,0,f,47,2021-01-11 14:41:51.030120,Sub1_Trial63_1.wav,1,16,3808,-4.656667348644169,True,0.508,1
142,1,2,0,f,47,2021-01-11 14:41:51.030120,Sub1_Trial63_1.wav,1,17,4322,8.571384353883078,True,0.508,1
143,1,2,0,f,47,2021-01-11 14:41:51.030120,Sub1_Trial63_1.wav,1,18,4895,-5.421246203629236,True,0.508,1
144,1,2,0,f,47,2021-01-11 14:41:51.030120,Sub1_Trial63_1.wav,1,19,5534,0.8099214840257679,True,0.508,1
145,1,2,0,f,47,2021-01-11 14:41:51.030120,Sub1_Trial63_1.wav,1,20,6245,-6.615047045745528,True,0.508,1
146,1,2,0,f,47,2021-01-11 14:41:51.030120,Sub1_Trial63_1.wav,1,21,7037,0.9220715713659648,True,0.508,1
147,1,2,0,f,47,2021-01-11 14:41:51.030120,Sub1_Trial63_1.wav,1,22,7920,-4.824378322555408,True,0.508,1
148,1,2,0,f,47,2021-01-11 14:41:51.030120,Sub1_Trial63_1.wav,1,23,8904,-0.09967610392615499,True,0.508,1
149,1,2,0,f,47,2021-01-11 14:41:51.030120,Sub1_Trial63_1.wav,1,24,10000,3.2971824667834966,True,0.508,1
150,1,3,1,f,47,2021-01-11 14:41:51.030120,Sub1_Trial100_0.wav,0,0,100,0.6923545840727287,False,0.861,1
151,1,3,1,f,47,2021-01-11 14:41:51.030120,Sub1_Trial100_0.wav,0,1,191,4.473916019537285,False,0.861,1
152,1,3,1,f,47,2021-01-11 14:41:51.030120,Sub1_Trial100_0.wav,0,2,293,9.1289672203029,False,0.861,1
153,1,3,1,f,47,2021-01-11 14:41:51.030120,Sub1_Trial100_0.wav,0,3,406,-11.016055681705392,False,0.861,1
154,1,3,1,f,47,2021-01-11 14:41:51.030120,Sub1_Trial100_0.wav,0,4,533,6.131649180773111,False,0.861,1
155,1,3,1,f,47,2021-01-11 14:41:51.030120,Sub1_Trial100_0.wav,0,5,673,0.9670396121002433,False,0.861,1
156,1,3,1,f,47,2021-01-11 14:41:51.030120,Sub1_Trial100_0.wav,0,6,830,-2.458305287216674,False,0.861,1
157,1,3,1,f,47,2021-01-11 14:41:51.030120,Sub1_Trial100_0.wav,0,7,1004,-6.418842631179702,False,0.861,1
158,1,3,1,f,47,2021-01-11 14:41:51.030120,Sub1_Trial100_0.wav,0,8,1199,7.748693242016138,False,0.861,1
159,1,3,1,f,47,2021-01-11 14:41:51.030120,Sub1_Trial100_0.wav,0,9,1416,4.442893483733781,False,0.861,1
160,1,3,1,f,47,2021-01-11 14:41:51.030120,Sub1_Trial100_0.wav,0,10,1657,10.803392711559887,False,0.861,1
161,1,3,1,f,47,2021-01-11 14:41:51.030120,Sub1_Trial100_0.wav,0,11,1926,5.78755280083438,False,0.861,1
162,1,3,1,f,47,2021-01-11 14:41:51.030120,Sub1_Trial100_0.wav,0,12,2226,-4.460643695221995,False,0.861,1
163,1,3,1,f,47,2021-01-11 14:41:51.030120,Sub1_Trial100_0.wav,0,13,2560,-1.9513679847990468,False,0.861,1
164,1,3,1,f,47,2021-01-11 14:41:51.030120,Sub1_Trial100_0.wav,0,14,2932,3.9060904661133033,False,0.861,1
165,1,3,1,f,47,2021-01-11 14:41:51.030120,Sub1_Trial100_0.wav,0,15,3346,-4.593520987960313,False,0.861,1
166,1,3,1,f,47,2021-01-11 14:41:51.030120,Sub1_Trial100_0.wav,0,16,3808,-3.026577315470181,False,0.861,1
167,1,3,1,f,47,2021-01-11 14:41:51.030120,Sub1_Trial100_0.wav,0,17,4322,4.93457116643559,False,0.861,1
168,1,3,1,f,47,2021-01-11 14:41:51.030120,Sub1_Trial100_0.wav,0,18,4895,-4.925915051005316,False,0.861,1
169,1,3,1,f,47,2021-01-11 14:41:51.030120,Sub1_Trial100_0.wav,0,19,5534,0.2699450289958092,False,0.861,1
170,1,3,1,f,47,2021-01-11 14:41:51.030120,Sub1_Trial100_0.wav,0,20,6245,4.695021821131952,False,0.861,1
171,1,3,1,f,47,2021-01-11 14:41:51.030120,Sub1_Trial100_0.wav,0,21,7037,-5.028108511315833,False,0.861,1
172,1,3,1,f,47,2021-01-11 14:41:51.030120,Sub1_Trial100_0.wav,0,22,7920,1.7819851391950683,False,0.861,1
173,1,3,1,f,47,2021-01-11 14:41:51.030120,Sub1_Trial100_0.wav,0,23,8904,-5.684238998479612,False,0.861,1
174,1,3,1,f,47,2021-01-11 14:41:51.030120,Sub1_Trial100_0.wav,0,24,10000,0.05003121001761762,False,0.861,1
175,1,3,1,f,47,2021-01-11 14:41:51.030120,Sub1_Trial236_0.wav,1,0,100,-11.159043670501942,True,0.861,1
176,1,3,1,f,47,2021-01-11 14:41:51.030120,Sub1_Trial236_0.wav,1,1,191,-4.513632994667781,True,0.861,1
177,1,3,1,f,47,2021-01-11 14:41:51.030120,Sub1_Trial236_0.wav,1,2,293,2.3278218423533805,True,0.861,1
178,1,3,1,f,47,2021-01-11 14:41:51.030120,Sub1_Trial236_0.wav,1,3,406,-9.365274959606856,True,0.861,1
179,1,3,1,f,47,2021-01-11 14:41:51.030120,Sub1_Trial236_0.wav,1,4,533,-0.4638673214397791,True,0.861,1
180,1,3,1,f,47,2021-01-11 14:41:51.030120,Sub1_Trial236_0.wav,1,5,673,-1.060664041174527,True,0.861,1
181,1,3,1,f,47,2021-01-11 14:41:51.030120,Sub1_Trial236_0.wav,1,6,830,-8.779399983255798,True,0.861,1
182,1,3,1,f,47,2021-01-11 14:41:51.030120,Sub1_Trial236_0.wav,1,7,1004,0.3921501320123673,True,0.861,1
183,1,3,1,f,47,2021-01-11 14:41:51.030120,Sub1_Trial236_0.wav,1,8,1199,1.4936242403204012,True,0.861,1
184,1,3,1,f,47,2021-01-11 14:41:51.030120,Sub1_Trial236_0.wav,1,9,1416,-7.57839033234979,True,0.861,1
185,1,3,1,f,47,2021-01-11 14:41:51.030120,Sub1_Trial236_0.wav,1,10,1657,10.306972165816822,True,0.861,1
186,1,3,1,f,47,2021-01-11 14:41:51.030120,Sub1_Trial236_0.wav,1,11,1926,-0.4607090993152775,True,0.861,1
187,1,3,1,f,47,2021-01-11 14:41:51.030120,Sub1_Trial236_0.wav,1,12,2226,-0.4245947232813884,True,0.861,1
188,1,3,1,f,47,2021-01-11 14:41:51.030120,Sub1_Trial236_0.wav,1,13,2560,-6.059358924201829,True,0.861,1
189,1,3,1,f,47,2021-01-11 14:41:51.030120,Sub1_Trial236_0.wav,1,14,2932,0.4280562652588629,True,0.861,1
190,1,3,1,f,47,2021-01-11 14:41:51.030120,Sub1_Trial236_0.wav,1,15,3346,4.792043756775722,True,0.861,1
191,1,3,1,f,47,2021-01-11 14:41:51.030120,Sub1_Trial236_0.wav,1,16,3808,-8.039531322926033,True,0.861,1
192,1,3,1,f,47,2021-01-11 14:41:51.030120,Sub1_Trial236_0.wav,1,17,4322,1.175575324588877,True,0.861,1
193,1,3,1,f,47,2021-01-11 14:41:51.030120,Sub1_Trial236_0.wav,1,18,4895,6.1437918582907685,True,0.861,1
194,1,3,1,f,47,2021-01-11 14:41:51.030120,Sub1_Trial236_0.wav,1,19,5534,-0.7004864260967605,True,0.861,1
195,1,3,1,f,47,2021-01-11 14:41:51.030120,Sub1_Trial236_0.wav,1,20,6245,0.027149855328250247,True,0.861,1
196,1,3,1,f,47,2021-01-11 14:41:51.030120,Sub1_Trial236_0.wav,1,21,7037,-0.4959357937768159,True,0.861,1
197,1,3,1,f,47,2021-01-11 14:41:51.030120,Sub1_Trial236_0.wav,1,22,7920,2.1499430093262557,True,0.861,1
198,1,3,1,f,47,2021-01-11 14:41:51.030120,Sub1_Trial236_0.wav,1,23,8904,4.609714974739206,True,0.861,1
199,1,3,1,f,47,2021-01-11 14:41:51.030120,Sub1_Trial236_0.wav,1,24,10000,1.254147588145771,True,0.861,1
200,1,4,1,f,47,2021-01-11 14:41:51.030120,Sub1_Trial100_1.wav,0,0,100,1.460847785307183,True,0.526,1
201,1,4,1,f,47,2021-01-11 14:41:51.030120,Sub1_Trial100_1.wav,0,1,191,-1.3354559868908784,True,0.526,1
202,1,4,1,f,47,2021-01-11 14:41:51.030120,Sub1_Trial100_1.wav,0,2,293,-1.7472144641702683,True,0.526,1
203,1,4,1,f,47,2021-01-11 14:41:51.030120,Sub1_Trial100_1.wav,0,3,406,-0.8598872800456911,True,0.526,1
204,1,4,1,f,47,2021-01-11 14:41:51.030120,Sub1_Trial100_1.wav,0,4,533,-11.936031152168761,True,0.526,1
205,1,4,1,f,47,2021-01-11 14:41:51.030120,Sub1_Trial100_1.wav,0,5,673,1.1393619590472737,True,0.526,1
206,1,4,1,f,47,2021-01-11 14:41:51.030120,Sub1_Trial100_1.wav,0,6,830,0.7496710393943034,True,0.526,1
207,1,4,1,f,47,2021-01-11 14:41:51.030120,Sub1_Trial100_1.wav,0,7,1004,-3.685463990743652,True,0.526,1
208,1,4,1,f,47,2021-01-11 14:41:51.030120,Sub1_Trial100_1.wav,0,8,1199,8.093677088391116,True,0.526,1
209,1,4,1,f,47,2021-01-11 14:41:51.030120,Sub1_Trial100_1.wav,0,9,1416,-2.126783666551395,True,0.526,1
210,1,4,1,f,47,2021-01-11 14:41:51.030120,Sub1_Trial100_1.wav,0,10,1657,1.0037613420666558,True,0.526,1
211,1,4,1,f,47,2021-01-11 14:41:51.030120,Sub1_Trial100_1.wav,0,11,1926,4.452804012089663,True,0.526,1
212,1,4,1,f,47,2021-01-11 14:41:51.030120,Sub1_Trial100_1.wav,0,12,2226,2.2110751421870307,True,0.526,1
213,1,4,1,f,47,2021-01-11 14:41:51.030120,Sub1_Trial100_1.wav,0,13,2560,7.744218325487915,True,0.526,1
214,1,4,1,f,47,2021-01-11 14:41:51.030120,Sub1_Trial100_1.wav,0,14,2932,0.8800496926069756,True,0.526,1
215,1,4,1,f,47,2021-01-11 14:41:51.030120,Sub1_Trial100_1.wav,0,15,3346,3.2366492110572285,True,0.526,1
216,1,4,1,f,47,2021-01-11 14:41:51.030120,Sub1_Trial100_1.wav,0,16,3808,5.696936165253573,True,0.526,1
217,1,4,1,f,47,2021-01-11 14:41:51.030120,Sub1_Trial100_1.wav,0,17,4322,1.2610449340976004,True,0.526,1
218,1,4,1,f,47,2021-01-11 14:41:51.030120,Sub1_Trial100_1.wav,0,18,4895,-2.3061023715895645,True,0.526,1
219,1,4,1,f,47,2021-01-11 14:41:51.030120,Sub1_Trial100_1.wav,0,19,5534,3.3361128344639583,True,0.526,1
220,1,4,1,f,47,2021-01-11 14:41:51.030120,Sub1_Trial100_1.wav,0,20,6245,-6.921089960347043,True,0.526,1
221,1,4,1,f,47,2021-01-11 14:41:51.030120,Sub1_Trial100_1.wav,0,21,7037,-2.1196546987064417,True,0.526,1
222,1,4,1,f,47,2021-01-11 14:41:51.030120,Sub1_Trial100_1.wav,0,22,7920,-5.360718254370422,True,0.526,1
223,1,4,1,f,47,2021-01-11 14:41:51.030120,Sub1_Trial100_1.wav,0,23,8904,4.697768362469011,True,0.526,1
224,1,4,1,f,47,2021-01-11 14:41:51.030120,Sub1_Trial100_1.wav,0,24,10000,-4.057387329555336,True,0.526,1
225,1,4,1,f,47,2021-01-11 14:41:51.030120,Sub1_Trial236_1.wav,1,0,100,-1.553707545714622,False,0.526,1
226,1,4,1,f,47,2021-01-11 14:41:51.030120,Sub1_Trial236_1.wav,1,1,191,-4.151325960158357,False,0.526,1
227,1,4,1,f,47,2021-01-11 14:41:51.030120,Sub1_Trial236_1.wav,1,2,293,1.839584161063467,False,0.526,1
228,1,4,1,f,47,2021-01-11 14:41:51.030120,Sub1_Trial236_1.wav,1,3,406,2.159029615454969,False,0.526,1
229,1,4,1,f,47,2021-01-11 14:41:51.030120,Sub1_Trial236_1.wav,1,4,533,1.3986257337964756,False,0.526,1
230,1,4,1,f,47,2021-01-11 14:41:51.030120,Sub1_Trial236_1.wav,1,5,673,6.740274332310272,False,0.526,1
231,1,4,1,f,47,2021-01-11 14:41:51.030120,Sub1_Trial236_1.wav,1,6,830,-2.667980781287398,False,0.526,1
232,1,4,1,f,47,2021-01-11 14:41:51.030120,Sub1_Trial236_1.wav,1,7,1004,3.5770166550078546,False,0.526,1
233,1,4,1,f,47,2021-01-11 14:41:51.030120,Sub1_Trial236_1.wav,1,8,1199,0.7194012889613438,False,0.526,1
234,1,4,1,f,47,2021-01-11 14:41:51.030120,Sub1_Trial236_1.wav,1,9,1416,-4.901768474244234,False,0.526,1
235,1,4,1,f,47,2021-01-11 14:41:51.030120,Sub1_Trial236_1.wav,1,10,1657,-3.9668718244646506,False,0.526,1
236,1,4,1,f,47,2021-01-11 14:41:51.030120,Sub1_Trial236_1.wav,1,11,1926,8.82321055340575,False,0.526,1
237,1,4,1,f,47,2021-01-11 14:41:51.030120,Sub1_Trial236_1.wav,1,12,2226,6.032956601488618,False,0.526,1
238,1,4,1,f,47,2021-01-11 14:41:51.030120,Sub1_Trial236_1.wav,1,13,2560,2.8668212087831018,False,0.526,1
239,1,4,1,f,47,2021-01-11 14:41:51.030120,Sub1_Trial236_1.wav,1,14,2932,-0.9179742429959736,False,0.526,1
240,1,4,1,f,47,2021-01-11 14:41:51.030120,Sub1_Trial236_1.wav,1,15,3346,0.3404683838968953,False,0.526,1
241,1,4,1,f,47,2021-01-11 14:41:51.030120,Sub1_Trial236_1.wav,1,16,3808,-2.3720700435279154,False,0.526,1
242,1,4,1,f,47,2021-01-11 14:41:51.030120,Sub1_Trial236_1.wav,1,17,4322,8.071416495222769,False,0.526,1
243,1,4,1,f,47,2021-01-11 14:41:51.030120,Sub1_Trial236_1.wav,1,18,4895,10.654499508176428,False,0.526,1
244,1,4,1,f,47,2021-01-11 14:41:51.030120,Sub1_Trial236_1.wav,1,19,5534,-9.589023634414561,False,0.526,1
245,1,4,1,f,47,2021-01-11 14:41:51.030120,Sub1_Trial236_1.wav,1,20,6245,3.1527122795696765,False,0.526,1
246,1,4,1,f,47,2021-01-11 14:41:51.030120,Sub1_Trial236_1.wav,1,21,7037,9.88497686407912,False,0.526,1
247,1,4,1,f,47,2021-01-11 14:41:51.030120,Sub1_Trial236_1.wav,1,22,7920,-3.2646247253620313,False,0.526,1
248,1,4,1,f,47,2021-01-11 14:41:51.030120,Sub1_Trial236_1.wav,1,23,8904,-8.77784564701072,False,0.526,1
249,1,4,1,f,47,2021-01-11 14:41:51.030120,Sub1_Trial236_1.wav,1,24,10000,0.3538317459446288,False,0.526,1
250,1,5,1,f,47,2021-01-11 14:41:51.030120,Sub1_Trial101_0.wav,0,0,100,0.8873719089486138,True,0.6809999999999999,1
251,1,5,1,f,47,2021-01-11 14:41:51.030120,Sub1_Trial101_0.wav,0,1,191,4.709801384345363,True,0.6809999999999999,1
252,1,5,1,f,47,2021-01-11 14:41:51.030120,Sub1_Trial101_0.wav,0,2,293,-3.6561474971518018,True,0.6809999999999999,1
253,1,5,1,f,47,2021-01-11 14:41:51.030120,Sub1_Trial101_0.wav,0,3,406,-0.24555779168992156,True,0.6809999999999999,1
254,1,5,1,f,47,2021-01-11 14:41:51.030120,Sub1_Trial101_0.wav,0,4,533,0.9326979769911554,True,0.6809999999999999,1
255,1,5,1,f,47,2021-01-11 14:41:51.030120,Sub1_Trial101_0.wav,0,5,673,1.6211561837066544,True,0.6809999999999999,1
256,1,5,1,f,47,2021-01-11 14:41:51.030120,Sub1_Trial101_0.wav,0,6,830,2.4251203851106493,True,0.6809999999999999,1
257,1,5,1,f,47,2021-01-11 14:41:51.030120,Sub1_Trial101_0.wav,0,7,1004,-4.830320771316688,True,0.6809999999999999,1
258,1,5,1,f,47,2021-01-11 14:41:51.030120,Sub1_Trial101_0.wav,0,8,1199,-4.231554059095913,True,0.6809999999999999,1
259,1,5,1,f,47,2021-01-11 14:41:51.030120,Sub1_Trial101_0.wav,0,9,1416,-2.4135143831513743,True,0.6809999999999999,1
260,1,5,1,f,47,2021-01-11 14:41:51.030120,Sub1_Trial101_0.wav,0,10,1657,-0.654496051553886,True,0.6809999999999999,1
261,1,5,1,f,47,2021-01-11 14:41:51.030120,Sub1_Trial101_0.wav,0,11,1926,-1.6497336274008705,True,0.6809999999999999,1
262,1,5,1,f,47,2021-01-11 14:41:51.030120,Sub1_Trial101_0.wav,0,12,2226,-2.0571697660700115,True,0.6809999999999999,1
263,1,5,1,f,47,2021-01-11 14:41:51.030120,Sub1_Trial101_0.wav,0,13,2560,8.627479291268878,True,0.6809999999999999,1
264,1,5,1,f,47,2021-01-11 14:41:51.030120,Sub1_Trial101_0.wav,0,14,2932,8.818803270219261,True,0.6809999999999999,1
265,1,5,1,f,47,2021-01-11 14:41:51.030120,Sub1_Trial101_0.wav,0,15,3346,0.8960082903563406,True,0.6809999999999999,1
266,1,5,1,f,47,2021-01-11 14:41:51.030120,Sub1_Trial101_0.wav,0,16,3808,0.07779511532547076,True,0.6809999999999999,1
267,1,5,1,f,47,2021-01-11 14:41:51.030120,Sub1_Trial101_0.wav,0,17,4322,-2.5467149963332547,True,0.6809999999999999,1
268,1,5,1,f,47,2021-01-11 14:41:51.030120,Sub1_Trial101_0.wav,0,18,4895,0.9322570031612464,True,0.6809999999999999,1
269,1,5,1,f,47,2021-01-11 14:41:51.030120,Sub1_Trial101_0.wav,0,19,5534,-5.319422637112987,True,0.6809999999999999,1
270,1,5,1,f,47,2021-01-11 14:41:51.030120,Sub1_Trial101_0.wav,0,20,6245,-4.07633032480673,True,0.6809999999999999,1
271,1,5,1,f,47,2021-01-11 14:41:51.030120,Sub1_Trial101_0.wav,0,21,7037,3.1012717062096087,True,0.6809999999999999,1
272,1,5,1,f,47,2021-01-11 14:41:51.030120,Sub1_Trial101_0.wav,0,22,7920,5.297975685486712,True,0.6809999999999999,1
273,1,5,1,f,47,2021-01-11 14:41:51.030120,Sub1_Trial101_0.wav,0,23,8904,1.8475132541062325,True,0.6809999999999999,1
274,1,5,1,f,47,2021-01-11 14:41:51.030120,Sub1_Trial101_0.wav,0,24,10000,-2.598104893229845,True,0.6809999999999999,1
275,1,5,1,f,47,2021-01-11 14:41:51.030120,Sub1_Trial237_0.wav,1,0,100,6.312864759373835,False,0.6809999999999999,1
276,1,5,1,f,47,2021-01-11 14:41:51.030120,Sub1_Trial237_0.wav,1,1,191,8.283667589906392,False,0.6809999999999999,1
277,1,5,1,f,47,2021-01-11 14:41:51.030120,Sub1_Trial237_0.wav,1,2,293,0.6259800980283017,False,0.6809999999999999,1
278,1,5,1,f,47,2021-01-11 14:41:51.030120,Sub1_Trial237_0.wav,1,3,406,-4.424012813109068,False,0.6809999999999999,1
279,1,5,1,f,47,2021-01-11 14:41:51.030120,Sub1_Trial237_0.wav,1,4,533,5.305463333989505,False,0.6809999999999999,1
280,1,5,1,f,47,2021-01-11 14:41:51.030120,Sub1_Trial237_0.wav,1,5,673,1.7769303656851234,False,0.6809999999999999,1
281,1,5,1,f,47,2021-01-11 14:41:51.030120,Sub1_Trial237_0.wav,1,6,830,3.208729030063199,False,0.6809999999999999,1
282,1,5,1,f,47,2021-01-11 14:41:51.030120,Sub1_Trial237_0.wav,1,7,1004,-6.032625557193753,False,0.6809999999999999,1
283,1,5,1,f,47,2021-01-11 14:41:51.030120,Sub1_Trial237_0.wav,1,8,1199,0.7399061992537126,False,0.6809999999999999,1
284,1,5,1,f,47,2021-01-11 14:41:51.030120,Sub1_Trial237_0.wav,1,9,1416,-0.9401976537204624,False,0.6809999999999999,1
285,1,5,1,f,47,2021-01-11 14:41:51.030120,Sub1_Trial237_0.wav,1,10,1657,-4.978656274404288,False,0.6809999999999999,1
286,1,5,1,f,47,2021-01-11 14:41:51.030120,Sub1_Trial237_0.wav,1,11,1926,6.3469629539648,False,0.6809999999999999,1
287,1,5,1,f,47,2021-01-11 14:41:51.030120,Sub1_Trial237_0.wav,1,12,2226,3.85524881085372,False,0.6809999999999999,1
288,1,5,1,f,47,2021-01-11 14:41:51.030120,Sub1_Trial237_0.wav,1,13,2560,2.3640754281500955,False,0.6809999999999999,1
289,1,5,1,f,47,2021-01-11 14:41:51.030120,Sub1_Trial237_0.wav,1,14,2932,2.4551751907725436,False,0.6809999999999999,1
290,1,5,1,f,47,2021-01-11 14:41:51.030120,Sub1_Trial237_0.wav,1,15,3346,-2.256030953081618,False,0.6809999999999999,1
291,1,5,1,f,47,2021-01-11 14:41:51.030120,Sub1_Trial237_0.wav,1,16,3808,-0.7771421874431633,False,0.6809999999999999,1
292,1,5,1,f,47,2021-01-11 14:41:51.030120,Sub1_Trial237_0.wav,1,17,4322,2.3445974192316426,False,0.6809999999999999,1
293,1,5,1,f,47,2021-01-11 14:41:51.030120,Sub1_Trial237_0.wav,1,18,4895,0.6458201005913204,False,0.6809999999999999,1
294,1,5,1,f,47,2021-01-11 14:41:51.030120,Sub1_Trial237_0.wav,1,19,5534,1.1334216582174923,False,0.6809999999999999,1
295,1,5,1,f,47,2021-01-11 14:41:51.030120,Sub1_Trial237_0.wav,1,20,6245,-3.1739738485698954,False,0.6809999999999999,1
296,1,5,1,f,47,2021-01-11 14:41:51.030120,Sub1_Trial237_0.wav,1,21,7037,1.7903082701819883,False,0.6809999999999999,1
297,1,5,1,f,47,2021-01-11 14:41:51.030120,Sub1_Trial237_0.wav,1,22,7920,6.261008458110554,False,0.6809999999999999,1
298,1,5,1,f,47,2021-01-11 14:41:51.030120,Sub1_Trial237_0.wav,1,23,8904,3.089018593592776,False,0.6809999999999999,1
299,1,5,1,f,47,2021-01-11 14:41:51.030120,Sub1_Trial237_0.wav,1,24,10000,-2.576403887796595,False,0.6809999999999999,1
300,1,6,1,f,47,2021-01-11 14:41:51.030120,Sub1_Trial101_1.wav,0,0,100,-2.1143727932919396,True,1.078,1
301,1,6,1,f,47,2021-01-11 14:41:51.030120,Sub1_Trial101_1.wav,0,1,191,-4.288945869746156,True,1.078,1
302,1,6,1,f,47,2021-01-11 14:41:51.030120,Sub1_Trial101_1.wav,0,2,293,4.137448104223237,True,1.078,1
303,1,6,1,f,47,2021-01-11 14:41:51.030120,Sub1_Trial101_1.wav,0,3,406,-7.228145575750624,True,1.078,1
304,1,6,1,f,47,2021-01-11 14:41:51.030120,Sub1_Trial101_1.wav,0,4,533,-1.944731962953496,True,1.078,1
305,1,6,1,f,47,2021-01-11 14:41:51.030120,Sub1_Trial101_1.wav,0,5,673,5.0587475652032285,True,1.078,1
306,1,6,1,f,47,2021-01-11 14:41:51.030120,Sub1_Trial101_1.wav,0,6,830,1.0433561267326867,True,1.078,1
307,1,6,1,f,47,2021-01-11 14:41:51.030120,Sub1_Trial101_1.wav,0,7,1004,0.3735257139029832,True,1.078,1
308,1,6,1,f,47,2021-01-11 14:41:51.030120,Sub1_Trial101_1.wav,0,8,1199,3.440690085763343,True,1.078,1
309,1,6,1,f,47,2021-01-11 14:41:51.030120,Sub1_Trial101_1.wav,0,9,1416,-5.886485470950962,True,1.078,1
310,1,6,1,f,47,2021-01-11 14:41:51.030120,Sub1_Trial101_1.wav,0,10,1657,0.21524711966265092,True,1.078,1
311,1,6,1,f,47,2021-01-11 14:41:51.030120,Sub1_Trial101_1.wav,0,11,1926,9.960048466140094,True,1.078,1
312,1,6,1,f,47,2021-01-11 14:41:51.030120,Sub1_Trial101_1.wav,0,12,2226,-1.9067756362101984,True,1.078,1
313,1,6,1,f,47,2021-01-11 14:41:51.030120,Sub1_Trial101_1.wav,0,13,2560,0.8223322121447452,True,1.078,1
314,1,6,1,f,47,2021-01-11 14:41:51.030120,Sub1_Trial101_1.wav,0,14,2932,1.9122639840401257,True,1.078,1
315,1,6,1,f,47,2021-01-11 14:41:51.030120,Sub1_Trial101_1.wav,0,15,3346,0.15336580784214926,True,1.078,1
316,1,6,1,f,47,2021-01-11 14:41:51.030120,Sub1_Trial101_1.wav,0,16,3808,4.244753408278354,True,1.078,1
317,1,6,1,f,47,2021-01-11 14:41:51.030120,Sub1_Trial101_1.wav,0,17,4322,1.3939340864860663,True,1.078,1
318,1,6,1,f,47,2021-01-11 14:41:51.030120,Sub1_Trial101_1.wav,0,18,4895,8.22677132060507,True,1.078,1
319,1,6,1,f,47,2021-01-11 14:41:51.030120,Sub1_Trial101_1.wav,0,19,5534,-3.8230703494738503,True,1.078,1
320,1,6,1,f,47,2021-01-11 14:41:51.030120,Sub1_Trial101_1.wav,0,20,6245,3.258132673640228,True,1.078,1
321,1,6,1,f,47,2021-01-11 14:41:51.030120,Sub1_Trial101_1.wav,0,21,7037,-2.632049652265856,True,1.078,1
322,1,6,1,f,47,2021-01-11 14:41:51.030120,Sub1_Trial101_1.wav,0,22,7920,-1.1340232531890126,True,1.078,1
323,1,6,1,f,47,2021-01-11 14:41:51.030120,Sub1_Trial101_1.wav,0,23,8904,-9.36197565545411,True,1.078,1
324,1,6,1,f,47,2021-01-11 14:41:51.030120,Sub1_Trial101_1.wav,0,24,10000,1.5498700739573932,True,1.078,1
325,1,6,1,f,47,2021-01-11 14:41:51.030120,Sub1_Trial237_1.wav,1,0,100,-1.1730559489259955,False,1.078,1
326,1,6,1,f,47,2021-01-11 14:41:51.030120,Sub1_Trial237_1.wav,1,1,191,2.182725028256058,False,1.078,1
327,1,6,1,f,47,2021-01-11 14:41:51.030120,Sub1_Trial237_1.wav,1,2,293,-6.3324173850654235,False,1.078,1
328,1,6,1,f,47,2021-01-11 14:41:51.030120,Sub1_Trial237_1.wav,1,3,406,3.0111368487271313,False,1.078,1
329,1,6,1,f,47,2021-01-11 14:41:51.030120,Sub1_Trial237_1.wav,1,4,533,1.5618101097719743,False,1.078,1
330,1,6,1,f,47,2021-01-11 14:41:51.030120,Sub1_Trial237_1.wav,1,5,673,-1.0637580998304603,False,1.078,1
331,1,6,1,f,47,2021-01-11 14:41:51.030120,Sub1_Trial237_1.wav,1,6,830,-6.155474141455259,False,1.078,1
332,1,6,1,f,47,2021-01-11 14:41:51.030120,Sub1_Trial237_1.wav,1,7,1004,-8.640347317444396,False,1.078,1
333,1,6,1,f,47,2021-01-11 14:41:51.030120,Sub1_Trial237_1.wav,1,8,1199,-5.011483199614812,False,1.078,1
334,1,6,1,f,47,2021-01-11 14:41:51.030120,Sub1_Trial237_1.wav,1,9,1416,-0.4061271728171015,False,1.078,1
335,1,6,1,f,47,2021-01-11 14:41:51.030120,Sub1_Trial237_1.wav,1,10,1657,5.426474595594055,False,1.078,1
336,1,6,1,f,47,2021-01-11 14:41:51.030120,Sub1_Trial237_1.wav,1,11,1926,-1.0920404711374303,False,1.078,1
337,1,6,1,f,47,2021-01-11 14:41:51.030120,Sub1_Trial237_1.wav,1,12,2226,-1.305742940151141,False,1.078,1
338,1,6,1,f,47,2021-01-11 14:41:51.030120,Sub1_Trial237_1.wav,1,13,2560,3.4568527203641963,False,1.078,1
339,1,6,1,f,47,2021-01-11 14:41:51.030120,Sub1_Trial237_1.wav,1,14,2932,-2.4758522658192508,False,1.078,1
340,1,6,1,f,47,2021-01-11 14:41:51.030120,Sub1_Trial237_1.wav,1,15,3346,5.320718266710629,False,1.078,1
341,1,6,1,f,47,2021-01-11 14:41:51.030120,Sub1_Trial237_1.wav,1,16,3808,-3.502979549423002,False,1.078,1
342,1,6,1,f,47,2021-01-11 14:41:51.030120,Sub1_Trial237_1.wav,1,17,4322,2.3866878610394617,False,1.078,1
343,1,6,1,f,47,2021-01-11 14:41:51.030120,Sub1_Trial237_1.wav,1,18,4895,1.2557802544547507,False,1.078,1
344,1,6,1,f,47,2021-01-11 14:41:51.030120,Sub1_Trial237_1.wav,1,19,5534,7.008505363378136,False,1.078,1
345,1,6,1,f,47,2021-01-11 14:41:51.030120,Sub1_Trial237_1.wav,1,20,6245,3.5236832026632934,False,1.078,1
346,1,6,1,f,47,2021-01-11 14:41:51.030120,Sub1_Trial237_1.wav,1,21,7037,-4.463144524232958,False,1.078,1
347,1,6,1,f,47,2021-01-11 14:41:51.030120,Sub1_Trial237_1.wav,1,22,7920,0.4219922782872871,False,1.078,1
348,1,6,1,f,47,2021-01-11 14:41:51.030120,Sub1_Trial237_1.wav,1,23,8904,2.6345259678320176,False,1.078,1
349,1,6,1,f,47,2021-01-11 14:41:51.030120,Sub1_Trial237_1.wav,1,24,10000,5.166510453001634,False,1.078,1
350,1,7,1,f,47,2021-01-11 14:41:51.030120,Sub1_Trial102_0.wav,0,0,100,1.0599424808697768,False,0.254,1
351,1,7,1,f,47,2021-01-11 14:41:51.030120,Sub1_Trial102_0.wav,0,1,191,-1.7535734824326592,False,0.254,1
352,1,7,1,f,47,2021-01-11 14:41:51.030120,Sub1_Trial102_0.wav,0,2,293,7.873909091696444,False,0.254,1
353,1,7,1,f,47,2021-01-11 14:41:51.030120,Sub1_Trial102_0.wav,0,3,406,-6.087627781063848,False,0.254,1
354,1,7,1,f,47,2021-01-11 14:41:51.030120,Sub1_Trial102_0.wav,0,4,533,10.62843543794399,False,0.254,1
355,1,7,1,f,47,2021-01-11 14:41:51.030120,Sub1_Trial102_0.wav,0,5,673,0.8160782618509224,False,0.254,1
356,1,7,1,f,47,2021-01-11 14:41:51.030120,Sub1_Trial102_0.wav,0,6,830,-0.7461331489513832,False,0.254,1
357,1,7,1,f,47,2021-01-11 14:41:51.030120,Sub1_Trial102_0.wav,0,7,1004,3.0999076130446017,False,0.254,1
358,1,7,1,f,47,2021-01-11 14:41:51.030120,Sub1_Trial102_0.wav,0,8,1199,-2.4665822625225915,False,0.254,1
359,1,7,1,f,47,2021-01-11 14:41:51.030120,Sub1_Trial102_0.wav,0,9,1416,-6.003522177641842,False,0.254,1
360,1,7,1,f,47,2021-01-11 14:41:51.030120,Sub1_Trial102_0.wav,0,10,1657,3.975679228400304,False,0.254,1
361,1,7,1,f,47,2021-01-11 14:41:51.030120,Sub1_Trial102_0.wav,0,11,1926,11.992230826772904,False,0.254,1
362,1,7,1,f,47,2021-01-11 14:41:51.030120,Sub1_Trial102_0.wav,0,12,2226,-0.060266914428915914,False,0.254,1
363,1,7,1,f,47,2021-01-11 14:41:51.030120,Sub1_Trial102_0.wav,0,13,2560,-2.2441298698258123,False,0.254,1
364,1,7,1,f,47,2021-01-11 14:41:51.030120,Sub1_Trial102_0.wav,0,14,2932,-2.8927516889502183,False,0.254,1
365,1,7,1,f,47,2021-01-11 14:41:51.030120,Sub1_Trial102_0.wav,0,15,3346,1.1819911022239065,False,0.254,1
366,1,7,1,f,47,2021-01-11 14:41:51.030120,Sub1_Trial102_0.wav,0,16,3808,-4.766096474392207,False,0.254,1
367,1,7,1,f,47,2021-01-11 14:41:51.030120,Sub1_Trial102_0.wav,0,17,4322,0.4687417016141233,False,0.254,1
368,1,7,1,f,47,2021-01-11 14:41:51.030120,Sub1_Trial102_0.wav,0,18,4895,1.665959011472255,False,0.254,1
369,1,7,1,f,47,2021-01-11 14:41:51.030120,Sub1_Trial102_0.wav,0,19,5534,-2.123458692329483,False,0.254,1
370,1,7,1,f,47,2021-01-11 14:41:51.030120,Sub1_Trial102_0.wav,0,20,6245,-5.5620187688065315,False,0.254,1
371,1,7,1,f,47,2021-01-11 14:41:51.030120,Sub1_Trial102_0.wav,0,21,7037,2.7894993790932068,False,0.254,1
372,1,7,1,f,47,2021-01-11 14:41:51.030120,Sub1_Trial102_0.wav,0,22,7920,10.296244568385342,False,0.254,1
373,1,7,1,f,47,2021-01-11 14:41:51.030120,Sub1_Trial102_0.wav,0,23,8904,-10.63164877486984,False,0.254,1
374,1,7,1,f,47,2021-01-11 14:41:51.030120,Sub1_Trial102_0.wav,0,24,10000,5.499162189555803,False,0.254,1
375,1,7,1,f,47,2021-01-11 14:41:51.030120,Sub1_Trial238_0.wav,1,0,100,-0.975739230477526,True,0.254,1
376,1,7,1,f,47,2021-01-11 14:41:51.030120,Sub1_Trial238_0.wav,1,1,191,-5.736593772415136,True,0.254,1
377,1,7,1,f,47,2021-01-11 14:41:51.030120,Sub1_Trial238_0.wav,1,2,293,8.245521121504854,True,0.254,1
378,1,7,1,f,47,2021-01-11 14:41:51.030120,Sub1_Trial238_0.wav,1,3,406,-4.132388837066085,True,0.254,1
379,1,7,1,f,47,2021-01-11 14:41:51.030120,Sub1_Trial238_0.wav,1,4,533,6.087483653394004,True,0.254,1
380,1,7,1,f,47,2021-01-11 14:41:51.030120,Sub1_Trial238_0.wav,1,5,673,10.137031986638238,True,0.254,1
381,1,7,1,f,47,2021-01-11 14:41:51.030120,Sub1_Trial238_0.wav,1,6,830,-2.723766047978664,True,0.254,1
382,1,7,1,f,47,2021-01-11 14:41:51.030120,Sub1_Trial238_0.wav,1,7,1004,3.462017373139204,True,0.254,1
383,1,7,1,f,47,2021-01-11 14:41:51.030120,Sub1_Trial238_0.wav,1,8,1199,0.062196184037682976,True,0.254,1
384,1,7,1,f,47,2021-01-11 14:41:51.030120,Sub1_Trial238_0.wav,1,9,1416,3.15747761358894,True,0.254,1
385,1,7,1,f,47,2021-01-11 14:41:51.030120,Sub1_Trial238_0.wav,1,10,1657,1.7219873413113378,True,0.254,1
386,1,7,1,f,47,2021-01-11 14:41:51.030120,Sub1_Trial238_0.wav,1,11,1926,7.990737298580811,True,0.254,1
387,1,7,1,f,47,2021-01-11 14:41:51.030120,Sub1_Trial238_0.wav,1,12,2226,9.197740201434726,True,0.254,1
388,1,7,1,f,47,2021-01-11 14:41:51.030120,Sub1_Trial238_0.wav,1,13,2560,-1.165298583482074,True,0.254,1
389,1,7,1,f,47,2021-01-11 14:41:51.030120,Sub1_Trial238_0.wav,1,14,2932,-9.181498854911554,True,0.254,1
390,1,7,1,f,47,2021-01-11 14:41:51.030120,Sub1_Trial238_0.wav,1,15,3346,10.734326490879047,True,0.254,1
391,1,7,1,f,47,2021-01-11 14:41:51.030120,Sub1_Trial238_0.wav,1,16,3808,5.9167755171019945,True,0.254,1
392,1,7,1,f,47,2021-01-11 14:41:51.030120,Sub1_Trial238_0.wav,1,17,4322,-0.9738534909601384,True,0.254,1
393,1,7,1,f,47,2021-01-11 14:41:51.030120,Sub1_Trial238_0.wav,1,18,4895,-1.465730833839754,True,0.254,1
394,1,7,1,f,47,2021-01-11 14:41:51.030120,Sub1_Trial238_0.wav,1,19,5534,-1.9293550990512902,True,0.254,1
395,1,7,1,f,47,2021-01-11 14:41:51.030120,Sub1_Trial238_0.wav,1,20,6245,0.6901388219160349,True,0.254,1
396,1,7,1,f,47,2021-01-11 14:41:51.030120,Sub1_Trial238_0.wav,1,21,7037,0.5370077538436501,True,0.254,1
397,1,7,1,f,47,2021-01-11 14:41:51.030120,Sub1_Trial238_0.wav,1,22,7920,-3.263747153313583,True,0.254,1
398,1,7,1,f,47,2021-01-11 14:41:51.030120,Sub1_Trial238_0.wav,1,23,8904,-2.7575411433997497,True,0.254,1
399,1,7,1,f,47,2021-01-11 14:41:51.030120,Sub1_Trial238_0.wav,1,24,10000,-3.4620095338914134,True,0.254,1
400,1,8,1,f,47,2021-01-11 14:41:51.030120,Sub1_Trial102_1.wav,0,0,100,-2.420730302265873,False,0.6409999999999999,1
401,1,8,1,f,47,2021-01-11 14:41:51.030120,Sub1_Trial102_1.wav,0,1,191,-6.148184664010667,False,0.6409999999999999,1
402,1,8,1,f,47,2021-01-11 14:41:51.030120,Sub1_Trial102_1.wav,0,2,293,-2.206749297675395,False,0.6409999999999999,1
403,1,8,1,f,47,2021-01-11 14:41:51.030120,Sub1_Trial102_1.wav,0,3,406,-2.8800845306546825,False,0.6409999999999999,1
404,1,8,1,f,47,2021-01-11 14:41:51.030120,Sub1_Trial102_1.wav,0,4,533,5.116247430423191,False,0.6409999999999999,1
405,1,8,1,f,47,2021-01-11 14:41:51.030120,Sub1_Trial102_1.wav,0,5,673,-7.633615428221726,False,0.6409999999999999,1
406,1,8,1,f,47,2021-01-11 14:41:51.030120,Sub1_Trial102_1.wav,0,6,830,-4.413688708279215,False,0.6409999999999999,1
407,1,8,1,f,47,2021-01-11 14:41:51.030120,Sub1_Trial102_1.wav,0,7,1004,4.155856268156551,False,0.6409999999999999,1
408,1,8,1,f,47,2021-01-11 14:41:51.030120,Sub1_Trial102_1.wav,0,8,1199,4.728427704459465,False,0.6409999999999999,1
409,1,8,1,f,47,2021-01-11 14:41:51.030120,Sub1_Trial102_1.wav,0,9,1416,-10.554099675309498,False,0.6409999999999999,1
410,1,8,1,f,47,2021-01-11 14:41:51.030120,Sub1_Trial102_1.wav,0,10,1657,-3.9353230484056687,False,0.6409999999999999,1
411,1,8,1,f,47,2021-01-11 14:41:51.030120,Sub1_Trial102_1.wav,0,11,1926,-0.4762092091933429,False,0.6409999999999999,1
412,1,8,1,f,47,2021-01-11 14:41:51.030120,Sub1_Trial102_1.wav,0,12,2226,-4.777620543632742,False,0.6409999999999999,1
413,1,8,1,f,47,2021-01-11 14:41:51.030120,Sub1_Trial102_1.wav,0,13,2560,2.9070931276265557,False,0.6409999999999999,1
414,1,8,1,f,47,2021-01-11 14:41:51.030120,Sub1_Trial102_1.wav,0,14,2932,10.461731974405184,False,0.6409999999999999,1
415,1,8,1,f,47,2021-01-11 14:41:51.030120,Sub1_Trial102_1.wav,0,15,3346,4.6402931008793935,False,0.6409999999999999,1
416,1,8,1,f,47,2021-01-11 14:41:51.030120,Sub1_Trial102_1.wav,0,16,3808,2.780609154612406,False,0.6409999999999999,1
417,1,8,1,f,47,2021-01-11 14:41:51.030120,Sub1_Trial102_1.wav,0,17,4322,3.5137524016865527,False,0.6409999999999999,1
418,1,8,1,f,47,2021-01-11 14:41:51.030120,Sub1_Trial102_1.wav,0,18,4895,0.3369747394672089,False,0.6409999999999999,1
419,1,8,1,f,47,2021-01-11 14:41:51.030120,Sub1_Trial102_1.wav,0,19,5534,-2.596132732668877,False,0.6409999999999999,1
420,1,8,1,f,47,2021-01-11 14:41:51.030120,Sub1_Trial102_1.wav,0,20,6245,1.3692138560731004,False,0.6409999999999999,1
421,1,8,1,f,47,2021-01-11 14:41:51.030120,Sub1_Trial102_1.wav,0,21,7037,-2.4758590796897364,False,0.6409999999999999,1
422,1,8,1,f,47,2021-01-11 14:41:51.030120,Sub1_Trial102_1.wav,0,22,7920,6.9558275518508905,False,0.6409999999999999,1
423,1,8,1,f,47,2021-01-11 14:41:51.030120,Sub1_Trial102_1.wav,0,23,8904,5.145372966009877,False,0.6409999999999999,1
424,1,8,1,f,47,2021-01-11 14:41:51.030120,Sub1_Trial102_1.wav,0,24,10000,-7.1732432455232225,False,0.6409999999999999,1
425,1,8,1,f,47,2021-01-11 14:41:51.030120,Sub1_Trial238_1.wav,1,0,100,-0.5195782706404586,True,0.6409999999999999,1
426,1,8,1,f,47,2021-01-11 14:41:51.030120,Sub1_Trial238_1.wav,1,1,191,-1.8509785834253707,True,0.6409999999999999,1
427,1,8,1,f,47,2021-01-11 14:41:51.030120,Sub1_Trial238_1.wav,1,2,293,-3.2879669152281714,True,0.6409999999999999,1
428,1,8,1,f,47,2021-01-11 14:41:51.030120,Sub1_Trial238_1.wav,1,3,406,-5.953791259619213,True,0.6409999999999999,1
429,1,8,1,f,47,2021-01-11 14:41:51.030120,Sub1_Trial238_1.wav,1,4,533,0.8035812646796043,True,0.6409999999999999,1
430,1,8,1,f,47,2021-01-11 14:41:51.030120,Sub1_Trial238_1.wav,1,5,673,6.176531065274973,True,0.6409999999999999,1
431,1,8,1,f,47,2021-01-11 14:41:51.030120,Sub1_Trial238_1.wav,1,6,830,-3.7627248603722183,True,0.6409999999999999,1
432,1,8,1,f,47,2021-01-11 14:41:51.030120,Sub1_Trial238_1.wav,1,7,1004,0.8326724727234407,True,0.6409999999999999,1
433,1,8,1,f,47,2021-01-11 14:41:51.030120,Sub1_Trial238_1.wav,1,8,1199,-0.4091223152490617,True,0.6409999999999999,1
434,1,8,1,f,47,2021-01-11 14:41:51.030120,Sub1_Trial238_1.wav,1,9,1416,-3.615349841415053,True,0.6409999999999999,1
435,1,8,1,f,47,2021-01-11 14:41:51.030120,Sub1_Trial238_1.wav,1,10,1657,-1.8109762669554896,True,0.6409999999999999,1
436,1,8,1,f,47,2021-01-11 14:41:51.030120,Sub1_Trial238_1.wav,1,11,1926,-5.510419116776715,True,0.6409999999999999,1
437,1,8,1,f,47,2021-01-11 14:41:51.030120,Sub1_Trial238_1.wav,1,12,2226,-0.4539060886226338,True,0.6409999999999999,1
438,1,8,1,f,47,2021-01-11 14:41:51.030120,Sub1_Trial238_1.wav,1,13,2560,-0.640994279675871,True,0.6409999999999999,1
439,1,8,1,f,47,2021-01-11 14:41:51.030120,Sub1_Trial238_1.wav,1,14,2932,-6.626348555247878,True,0.6409999999999999,1
440,1,8,1,f,47,2021-01-11 14:41:51.030120,Sub1_Trial238_1.wav,1,15,3346,-8.40655133952186,True,0.6409999999999999,1
441,1,8,1,f,47,2021-01-11 14:41:51.030120,Sub1_Trial238_1.wav,1,16,3808,2.4288973212486566,True,0.6409999999999999,1
442,1,8,1,f,47,2021-01-11 14:41:51.030120,Sub1_Trial238_1.wav,1,17,4322,3.32519473672988,True,0.6409999999999999,1
443,1,8,1,f,47,2021-01-11 14:41:51.030120,Sub1_Trial238_1.wav,1,18,4895,-0.09378537469819144,True,0.6409999999999999,1
444,1,8,1,f,47,2021-01-11 14:41:51.030120,Sub1_Trial238_1.wav,1,19,5534,-1.9416354988018951,True,0.6409999999999999,1
445,1,8,1,f,47,2021-01-11 14:41:51.030120,Sub1_Trial238_1.wav,1,20,6245,-5.10162174311125,True,0.6409999999999999,1
446,1,8,1,f,47,2021-01-11 14:41:51.030120,Sub1_Trial238_1.wav,1,21,7037,11.813321748728569,True,0.6409999999999999,1
447,1,8,1,f,47,2021-01-11 14:41:51.030120,Sub1_Trial238_1.wav,1,22,7920,-8.437810694853326,True,0.6409999999999999,1
448,1,8,1,f,47,2021-01-11 14:41:51.030120,Sub1_Trial238_1.wav,1,23,8904,1.695035064971916,True,0.6409999999999999,1
449,1,8,1,f,47,2021-01-11 14:41:51.030120,Sub1_Trial238_1.wav,1,24,10000,0.007952099414527734,True,0.6409999999999999,1
450,1,9,1,f,47,2021-01-11 14:41:51.030120,Sub1_Trial103_0.wav,0,0,100,1.905202418947492,True,0.631,1
451,1,9,1,f,47,2021-01-11 14:41:51.030120,Sub1_Trial103_0.wav,0,1,191,-1.7762676360169092,True,0.631,1
452,1,9,1,f,47,2021-01-11 14:41:51.030120,Sub1_Trial103_0.wav,0,2,293,-4.380079233322476,True,0.631,1
453,1,9,1,f,47,2021-01-11 14:41:51.030120,Sub1_Trial103_0.wav,0,3,406,-2.2511463461332433,True,0.631,1
454,1,9,1,f,47,2021-01-11 14:41:51.030120,Sub1_Trial103_0.wav,0,4,533,-5.170422513612789,True,0.631,1
455,1,9,1,f,47,2021-01-11 14:41:51.030120,Sub1_Trial103_0.wav,0,5,673,2.916593302625978,True,0.631,1
456,1,9,1,f,47,2021-01-11 14:41:51.030120,Sub1_Trial103_0.wav,0,6,830,-4.046617645153978,True,0.631,1
457,1,9,1,f,47,2021-01-11 14:41:51.030120,Sub1_Trial103_0.wav,0,7,1004,6.555956386340115,True,0.631,1
458,1,9,1,f,47,2021-01-11 14:41:51.030120,Sub1_Trial103_0.wav,0,8,1199,-6.10553858304003,True,0.631,1
459,1,9,1,f,47,2021-01-11 14:41:51.030120,Sub1_Trial103_0.wav,0,9,1416,-4.011737505113362,True,0.631,1
460,1,9,1,f,47,2021-01-11 14:41:51.030120,Sub1_Trial103_0.wav,0,10,1657,-8.058704296395039,True,0.631,1
461,1,9,1,f,47,2021-01-11 14:41:51.030120,Sub1_Trial103_0.wav,0,11,1926,3.2214463360484142,True,0.631,1
462,1,9,1,f,47,2021-01-11 14:41:51.030120,Sub1_Trial103_0.wav,0,12,2226,-4.021814006649536,True,0.631,1
463,1,9,1,f,47,2021-01-11 14:41:51.030120,Sub1_Trial103_0.wav,0,13,2560,-4.00539074601452,True,0.631,1
464,1,9,1,f,47,2021-01-11 14:41:51.030120,Sub1_Trial103_0.wav,0,14,2932,3.3192634973592616,True,0.631,1
465,1,9,1,f,47,2021-01-11 14:41:51.030120,Sub1_Trial103_0.wav,0,15,3346,1.98020553471368,True,0.631,1
466,1,9,1,f,47,2021-01-11 14:41:51.030120,Sub1_Trial103_0.wav,0,16,3808,0.5697803075018086,True,0.631,1
467,1,9,1,f,47,2021-01-11 14:41:51.030120,Sub1_Trial103_0.wav,0,17,4322,3.399177670045725,True,0.631,1
468,1,9,1,f,47,2021-01-11 14:41:51.030120,Sub1_Trial103_0.wav,0,18,4895,-3.6792670566994703,True,0.631,1
469,1,9,1,f,47,2021-01-11 14:41:51.030120,Sub1_Trial103_0.wav,0,19,5534,6.223907874672452,True,0.631,1
470,1,9,1,f,47,2021-01-11 14:41:51.030120,Sub1_Trial103_0.wav,0,20,6245,1.3514826237084816,True,0.631,1
471,1,9,1,f,47,2021-01-11 14:41:51.030120,Sub1_Trial103_0.wav,0,21,7037,3.8154606770980046,True,0.631,1
472,1,9,1,f,47,2021-01-11 14:41:51.030120,Sub1_Trial103_0.wav,0,22,7920,-10.177549336779562,True,0.631,1
473,1,9,1,f,47,2021-01-11 14:41:51.030120,Sub1_Trial103_0.wav,0,23,8904,-9.417510208965624,True,0.631,1
474,1,9,1,f,47,2021-01-11 14:41:51.030120,Sub1_Trial103_0.wav,0,24,10000,-0.03168221724576579,True,0.631,1
475,1,9,1,f,47,2021-01-11 14:41:51.030120,Sub1_Trial239_0.wav,1,0,100,-5.945366646658852,False,0.631,1
476,1,9,1,f,47,2021-01-11 14:41:51.030120,Sub1_Trial239_0.wav,1,1,191,6.560104458976065,False,0.631,1
477,1,9,1,f,47,2021-01-11 14:41:51.030120,Sub1_Trial239_0.wav,1,2,293,-5.738025978969072,False,0.631,1
478,1,9,1,f,47,2021-01-11 14:41:51.030120,Sub1_Trial239_0.wav,1,3,406,4.565709356585515,False,0.631,1
479,1,9,1,f,47,2021-01-11 14:41:51.030120,Sub1_Trial239_0.wav,1,4,533,4.48720913670233,False,0.631,1
480,1,9,1,f,47,2021-01-11 14:41:51.030120,Sub1_Trial239_0.wav,1,5,673,5.957612649459502,False,0.631,1
481,1,9,1,f,47,2021-01-11 14:41:51.030120,Sub1_Trial239_0.wav,1,6,830,8.611014092910633,False,0.631,1
482,1,9,1,f,47,2021-01-11 14:41:51.030120,Sub1_Trial239_0.wav,1,7,1004,-0.2489100809617114,False,0.631,1
483,1,9,1,f,47,2021-01-11 14:41:51.030120,Sub1_Trial239_0.wav,1,8,1199,2.6980020996303145,False,0.631,1
484,1,9,1,f,47,2021-01-11 14:41:51.030120,Sub1_Trial239_0.wav,1,9,1416,2.6327136646862312,False,0.631,1
485,1,9,1,f,47,2021-01-11 14:41:51.030120,Sub1_Trial239_0.wav,1,10,1657,-8.591563286029817,False,0.631,1
486,1,9,1,f,47,2021-01-11 14:41:51.030120,Sub1_Trial239_0.wav,1,11,1926,2.138513428516577,False,0.631,1
487,1,9,1,f,47,2021-01-11 14:41:51.030120,Sub1_Trial239_0.wav,1,12,2226,5.147890336201933,False,0.631,1
488,1,9,1,f,47,2021-01-11 14:41:51.030120,Sub1_Trial239_0.wav,1,13,2560,0.20713454832743544,False,0.631,1
489,1,9,1,f,47,2021-01-11 14:41:51.030120,Sub1_Trial239_0.wav,1,14,2932,0.4920023392179907,False,0.631,1
490,1,9,1,f,47,2021-01-11 14:41:51.030120,Sub1_Trial239_0.wav,1,15,3346,-0.4513660471238491,False,0.631,1
491,1,9,1,f,47,2021-01-11 14:41:51.030120,Sub1_Trial239_0.wav,1,16,3808,0.19778542549725053,False,0.631,1
492,1,9,1,f,47,2021-01-11 14:41:51.030120,Sub1_Trial239_0.wav,1,17,4322,3.446397560804426,False,0.631,1
493,1,9,1,f,47,2021-01-11 14:41:51.030120,Sub1_Trial239_0.wav,1,18,4895,1.066975037905524,False,0.631,1
494,1,9,1,f,47,2021-01-11 14:41:51.030120,Sub1_Trial239_0.wav,1,19,5534,3.507804304879957,False,0.631,1
495,1,9,1,f,47,2021-01-11 14:41:51.030120,Sub1_Trial239_0.wav,1,20,6245,0.4290952847793771,False,0.631,1
496,1,9,1,f,47,2021-01-11 14:41:51.030120,Sub1_Trial239_0.wav,1,21,7037,2.4009469690991625,False,0.631,1
497,1,9,1,f,47,2021-01-11 14:41:51.030120,Sub1_Trial239_0.wav,1,22,7920,0.30706990692993624,False,0.631,1
498,1,9,1,f,47,2021-01-11 14:41:51.030120,Sub1_Trial239_0.wav,1,23,8904,-5.0446872173333945,False,0.631,1
499,1,9,1,f,47,2021-01-11 14:41:51.030120,Sub1_Trial239_0.wav,1,24,10000,2.0353790403502354,False,0.631,1
500,1,10,1,f,47,2021-01-11 14:41:51.030120,Sub1_Trial103_1.wav,0,0,100,-2.9976275173209563,True,0.33399999999999996,1
501,1,10,1,f,47,2021-01-11 14:41:51.030120,Sub1_Trial103_1.wav,0,1,191,7.205796309125907,True,0.33399999999999996,1
502,1,10,1,f,47,2021-01-11 14:41:51.030120,Sub1_Trial103_1.wav,0,2,293,2.554117836916316,True,0.33399999999999996,1
503,1,10,1,f,47,2021-01-11 14:41:51.030120,Sub1_Trial103_1.wav,0,3,406,-6.171917424510676,True,0.33399999999999996,1
504,1,10,1,f,47,2021-01-11 14:41:51.030120,Sub1_Trial103_1.wav,0,4,533,0.5188408095633469,True,0.33399999999999996,1
505,1,10,1,f,47,2021-01-11 14:41:51.030120,Sub1_Trial103_1.wav,0,5,673,-4.796300642821746,True,0.33399999999999996,1
506,1,10,1,f,47,2021-01-11 14:41:51.030120,Sub1_Trial103_1.wav,0,6,830,-0.9258548912150788,True,0.33399999999999996,1
507,1,10,1,f,47,2021-01-11 14:41:51.030120,Sub1_Trial103_1.wav,0,7,1004,3.2303194065047367,True,0.33399999999999996,1
508,1,10,1,f,47,2021-01-11 14:41:51.030120,Sub1_Trial103_1.wav,0,8,1199,-4.2444182569290785,True,0.33399999999999996,1
509,1,10,1,f,47,2021-01-11 14:41:51.030120,Sub1_Trial103_1.wav,0,9,1416,-5.612657567193018,True,0.33399999999999996,1
510,1,10,1,f,47,2021-01-11 14:41:51.030120,Sub1_Trial103_1.wav,0,10,1657,-7.897354414051878,True,0.33399999999999996,1
511,1,10,1,f,47,2021-01-11 14:41:51.030120,Sub1_Trial103_1.wav,0,11,1926,-3.275713290462348,True,0.33399999999999996,1
512,1,10,1,f,47,2021-01-11 14:41:51.030120,Sub1_Trial103_1.wav,0,12,2226,-0.3963266463665996,True,0.33399999999999996,1
513,1,10,1,f,47,2021-01-11 14:41:51.030120,Sub1_Trial103_1.wav,0,13,2560,1.213386314920795,True,0.33399999999999996,1
514,1,10,1,f,47,2021-01-11 14:41:51.030120,Sub1_Trial103_1.wav,0,14,2932,-2.676911349084348,True,0.33399999999999996,1
515,1,10,1,f,47,2021-01-11 14:41:51.030120,Sub1_Trial103_1.wav,0,15,3346,5.858374956864514,True,0.33399999999999996,1
516,1,10,1,f,47,2021-01-11 14:41:51.030120,Sub1_Trial103_1.wav,0,16,3808,-0.7389974849835479,True,0.33399999999999996,1
517,1,10,1,f,47,2021-01-11 14:41:51.030120,Sub1_Trial103_1.wav,0,17,4322,1.8886055698742557,True,0.33399999999999996,1
518,1,10,1,f,47,2021-01-11 14:41:51.030120,Sub1_Trial103_1.wav,0,18,4895,2.100024964113232,True,0.33399999999999996,1
519,1,10,1,f,47,2021-01-11 14:41:51.030120,Sub1_Trial103_1.wav,0,19,5534,1.0066272585836875,True,0.33399999999999996,1
520,1,10,1,f,47,2021-01-11 14:41:51.030120,Sub1_Trial103_1.wav,0,20,6245,-6.8699705374617075,True,0.33399999999999996,1
521,1,10,1,f,47,2021-01-11 14:41:51.030120,Sub1_Trial103_1.wav,0,21,7037,-0.6868525373189176,True,0.33399999999999996,1
522,1,10,1,f,47,2021-01-11 14:41:51.030120,Sub1_Trial103_1.wav,0,22,7920,-9.625918502522456,True,0.33399999999999996,1
523,1,10,1,f,47,2021-01-11 14:41:51.030120,Sub1_Trial103_1.wav,0,23,8904,-0.4363819410283809,True,0.33399999999999996,1
524,1,10,1,f,47,2021-01-11 14:41:51.030120,Sub1_Trial103_1.wav,0,24,10000,6.685598451480328,True,0.33399999999999996,1
525,1,10,1,f,47,2021-01-11 14:41:51.030120,Sub1_Trial239_1.wav,1,0,100,4.729111356605705,False,0.33399999999999996,1
526,1,10,1,f,47,2021-01-11 14:41:51.030120,Sub1_Trial239_1.wav,1,1,191,-1.491698582610364,False,0.33399999999999996,1
527,1,10,1,f,47,2021-01-11 14:41:51.030120,Sub1_Trial239_1.wav,1,2,293,10.475916716857213,False,0.33399999999999996,1
528,1,10,1,f,47,2021-01-11 14:41:51.030120,Sub1_Trial239_1.wav,1,3,406,5.58942897172114,False,0.33399999999999996,1
529,1,10,1,f,47,2021-01-11 14:41:51.030120,Sub1_Trial239_1.wav,1,4,533,2.706218685872423,False,0.33399999999999996,1
530,1,10,1,f,47,2021-01-11 14:41:51.030120,Sub1_Trial239_1.wav,1,5,673,4.900692536896,False,0.33399999999999996,1
531,1,10,1,f,47,2021-01-11 14:41:51.030120,Sub1_Trial239_1.wav,1,6,830,6.030577759217144,False,0.33399999999999996,1
532,1,10,1,f,47,2021-01-11 14:41:51.030120,Sub1_Trial239_1.wav,1,7,1004,-3.185464743630471,False,0.33399999999999996,1
533,1,10,1,f,47,2021-01-11 14:41:51.030120,Sub1_Trial239_1.wav,1,8,1199,0.11700272996002235,False,0.33399999999999996,1
534,1,10,1,f,47,2021-01-11 14:41:51.030120,Sub1_Trial239_1.wav,1,9,1416,-7.159508313361889,False,0.33399999999999996,1
535,1,10,1,f,47,2021-01-11 14:41:51.030120,Sub1_Trial239_1.wav,1,10,1657,0.8837952807394716,False,0.33399999999999996,1
536,1,10,1,f,47,2021-01-11 14:41:51.030120,Sub1_Trial239_1.wav,1,11,1926,2.4000937987474162,False,0.33399999999999996,1
537,1,10,1,f,47,2021-01-11 14:41:51.030120,Sub1_Trial239_1.wav,1,12,2226,-5.666174739860897,False,0.33399999999999996,1
538,1,10,1,f,47,2021-01-11 14:41:51.030120,Sub1_Trial239_1.wav,1,13,2560,0.7365608628587188,False,0.33399999999999996,1
539,1,10,1,f,47,2021-01-11 14:41:51.030120,Sub1_Trial239_1.wav,1,14,2932,6.629939513301193,False,0.33399999999999996,1
540,1,10,1,f,47,2021-01-11 14:41:51.030120,Sub1_Trial239_1.wav,1,15,3346,1.76553166143825,False,0.33399999999999996,1
541,1,10,1,f,47,2021-01-11 14:41:51.030120,Sub1_Trial239_1.wav,1,16,3808,-2.2262622379781414,False,0.33399999999999996,1
542,1,10,1,f,47,2021-01-11 14:41:51.030120,Sub1_Trial239_1.wav,1,17,4322,1.7017599551112288,False,0.33399999999999996,1
543,1,10,1,f,47,2021-01-11 14:41:51.030120,Sub1_Trial239_1.wav,1,18,4895,-8.226014305869896,False,0.33399999999999996,1
544,1,10,1,f,47,2021-01-11 14:41:51.030120,Sub1_Trial239_1.wav,1,19,5534,2.8609531983106615,False,0.33399999999999996,1
545,1,10,1,f,47,2021-01-11 14:41:51.030120,Sub1_Trial239_1.wav,1,20,6245,-2.526254470864171,False,0.33399999999999996,1
546,1,10,1,f,47,2021-01-11 14:41:51.030120,Sub1_Trial239_1.wav,1,21,7037,-4.864570505507559,False,0.33399999999999996,1
547,1,10,1,f,47,2021-01-11 14:41:51.030120,Sub1_Trial239_1.wav,1,22,7920,-5.070016527963993,False,0.33399999999999996,1
548,1,10,1,f,47,2021-01-11 14:41:51.030120,Sub1_Trial239_1.wav,1,23,8904,-0.3160928168214018,False,0.33399999999999996,1
549,1,10,1,f,47,2021-01-11 14:41:51.030120,Sub1_Trial239_1.wav,1,24,10000,-0.35868391544571915,False,0.33399999999999996,1
550,1,11,1,f,47,2021-01-11 14:41:51.030120,Sub1_Trial104_0.wav,0,0,100,0.9745687946996834,False,0.529,1
551,1,11,1,f,47,2021-01-11 14:41:51.030120,Sub1_Trial104_0.wav,0,1,191,-1.321925053043955,False,0.529,1
552,1,11,1,f,47,2021-01-11 14:41:51.030120,Sub1_Trial104_0.wav,0,2,293,-1.0051228101041323,False,0.529,1
553,1,11,1,f,47,2021-01-11 14:41:51.030120,Sub1_Trial104_0.wav,0,3,406,4.931965075547959,False,0.529,1
554,1,11,1,f,47,2021-01-11 14:41:51.030120,Sub1_Trial104_0.wav,0,4,533,3.2510222645817177,False,0.529,1
555,1,11,1,f,47,2021-01-11 14:41:51.030120,Sub1_Trial104_0.wav,0,5,673,-3.9769299834689535,False,0.529,1
556,1,11,1,f,47,2021-01-11 14:41:51.030120,Sub1_Trial104_0.wav,0,6,830,-5.434062468349179,False,0.529,1
557,1,11,1,f,47,2021-01-11 14:41:51.030120,Sub1_Trial104_0.wav,0,7,1004,-5.696889565045827,False,0.529,1
558,1,11,1,f,47,2021-01-11 14:41:51.030120,Sub1_Trial104_0.wav,0,8,1199,6.504838625068686,False,0.529,1
559,1,11,1,f,47,2021-01-11 14:41:51.030120,Sub1_Trial104_0.wav,0,9,1416,-1.8616520730832442,False,0.529,1
560,1,11,1,f,47,2021-01-11 14:41:51.030120,Sub1_Trial104_0.wav,0,10,1657,8.172654637693753,False,0.529,1
561,1,11,1,f,47,2021-01-11 14:41:51.030120,Sub1_Trial104_0.wav,0,11,1926,-1.1126896265024,False,0.529,1
562,1,11,1,f,47,2021-01-11 14:41:51.030120,Sub1_Trial104_0.wav,0,12,2226,7.067097512909572,False,0.529,1
563,1,11,1,f,47,2021-01-11 14:41:51.030120,Sub1_Trial104_0.wav,0,13,2560,-1.8561225358986808,False,0.529,1
564,1,11,1,f,47,2021-01-11 14:41:51.030120,Sub1_Trial104_0.wav,0,14,2932,-2.6899111946041976,False,0.529,1
565,1,11,1,f,47,2021-01-11 14:41:51.030120,Sub1_Trial104_0.wav,0,15,3346,-3.4025544688211395,False,0.529,1
566,1,11,1,f,47,2021-01-11 14:41:51.030120,Sub1_Trial104_0.wav,0,16,3808,0.7072462197409629,False,0.529,1
567,1,11,1,f,47,2021-01-11 14:41:51.030120,Sub1_Trial104_0.wav,0,17,4322,1.4277406619743973,False,0.529,1
568,1,11,1,f,47,2021-01-11 14:41:51.030120,Sub1_Trial104_0.wav,0,18,4895,3.128909191843942,False,0.529,1
569,1,11,1,f,47,2021-01-11 14:41:51.030120,Sub1_Trial104_0.wav,0,19,5534,2.884749491376603,False,0.529,1
570,1,11,1,f,47,2021-01-11 14:41:51.030120,Sub1_Trial104_0.wav,0,20,6245,3.1821973311317233,False,0.529,1
571,1,11,1,f,47,2021-01-11 14:41:51.030120,Sub1_Trial104_0.wav,0,21,7037,6.589704215754511,False,0.529,1
572,1,11,1,f,47,2021-01-11 14:41:51.030120,Sub1_Trial104_0.wav,0,22,7920,-3.1044069930969798,False,0.529,1
573,1,11,1,f,47,2021-01-11 14:41:51.030120,Sub1_Trial104_0.wav,0,23,8904,-1.190961486919302,False,0.529,1
574,1,11,1,f,47,2021-01-11 14:41:51.030120,Sub1_Trial104_0.wav,0,24,10000,0.3577820389819409,False,0.529,1
575,1,11,1,f,47,2021-01-11 14:41:51.030120,Sub1_Trial23_0.wav,1,0,100,1.7522252578848332,True,0.529,1
576,1,11,1,f,47,2021-01-11 14:41:51.030120,Sub1_Trial23_0.wav,1,1,191,-3.584301250620196,True,0.529,1
577,1,11,1,f,47,2021-01-11 14:41:51.030120,Sub1_Trial23_0.wav,1,2,293,8.554215307330455,True,0.529,1
578,1,11,1,f,47,2021-01-11 14:41:51.030120,Sub1_Trial23_0.wav,1,3,406,4.711668387901524,True,0.529,1
579,1,11,1,f,47,2021-01-11 14:41:51.030120,Sub1_Trial23_0.wav,1,4,533,-0.3171758799721797,True,0.529,1
580,1,11,1,f,47,2021-01-11 14:41:51.030120,Sub1_Trial23_0.wav,1,5,673,0.3433707489072513,True,0.529,1
581,1,11,1,f,47,2021-01-11 14:41:51.030120,Sub1_Trial23_0.wav,1,6,830,-0.8602433228194766,True,0.529,1
582,1,11,1,f,47,2021-01-11 14:41:51.030120,Sub1_Trial23_0.wav,1,7,1004,2.917690459412705,True,0.529,1
583,1,11,1,f,47,2021-01-11 14:41:51.030120,Sub1_Trial23_0.wav,1,8,1199,-1.6232925582669298,True,0.529,1
584,1,11,1,f,47,2021-01-11 14:41:51.030120,Sub1_Trial23_0.wav,1,9,1416,3.1957099779849285,True,0.529,1
585,1,11,1,f,47,2021-01-11 14:41:51.030120,Sub1_Trial23_0.wav,1,10,1657,2.1067321013590994,True,0.529,1
586,1,11,1,f,47,2021-01-11 14:41:51.030120,Sub1_Trial23_0.wav,1,11,1926,0.014888358093618869,True,0.529,1
587,1,11,1,f,47,2021-01-11 14:41:51.030120,Sub1_Trial23_0.wav,1,12,2226,4.725673527555543,True,0.529,1
588,1,11,1,f,47,2021-01-11 14:41:51.030120,Sub1_Trial23_0.wav,1,13,2560,-4.721208325504481,True,0.529,1
589,1,11,1,f,47,2021-01-11 14:41:51.030120,Sub1_Trial23_0.wav,1,14,2932,3.706141397946774,True,0.529,1
590,1,11,1,f,47,2021-01-11 14:41:51.030120,Sub1_Trial23_0.wav,1,15,3346,-4.249168763582921,True,0.529,1
591,1,11,1,f,47,2021-01-11 14:41:51.030120,Sub1_Trial23_0.wav,1,16,3808,3.3396403865189312,True,0.529,1
592,1,11,1,f,47,2021-01-11 14:41:51.030120,Sub1_Trial23_0.wav,1,17,4322,2.5623771069275785,True,0.529,1
593,1,11,1,f,47,2021-01-11 14:41:51.030120,Sub1_Trial23_0.wav,1,18,4895,3.469184545010095,True,0.529,1
594,1,11,1,f,47,2021-01-11 14:41:51.030120,Sub1_Trial23_0.wav,1,19,5534,11.511421870224204,True,0.529,1
595,1,11,1,f,47,2021-01-11 14:41:51.030120,Sub1_Trial23_0.wav,1,20,6245,6.48741997216619,True,0.529,1
596,1,11,1,f,47,2021-01-11 14:41:51.030120,Sub1_Trial23_0.wav,1,21,7037,-4.5008285250392825,True,0.529,1
597,1,11,1,f,47,2021-01-11 14:41:51.030120,Sub1_Trial23_0.wav,1,22,7920,-3.3813401831809626,True,0.529,1
598,1,11,1,f,47,2021-01-11 14:41:51.030120,Sub1_Trial23_0.wav,1,23,8904,3.839638197289013,True,0.529,1
599,1,11,1,f,47,2021-01-11 14:41:51.030120,Sub1_Trial23_0.wav,1,24,10000,6.882773534046255,True,0.529,1
600,1,12,1,f,47,2021-01-11 14:41:51.030120,Sub1_Trial104_1.wav,0,0,100,-0.40472018487383066,True,1.381,1
601,1,12,1,f,47,2021-01-11 14:41:51.030120,Sub1_Trial104_1.wav,0,1,191,-4.717056751408733,True,1.381,1
602,1,12,1,f,47,2021-01-11 14:41:51.030120,Sub1_Trial104_1.wav,0,2,293,-0.65278041094496,True,1.381,1
603,1,12,1,f,47,2021-01-11 14:41:51.030120,Sub1_Trial104_1.wav,0,3,406,6.632242190366745,True,1.381,1
604,1,12,1,f,47,2021-01-11 14:41:51.030120,Sub1_Trial104_1.wav,0,4,533,-3.157179192805763,True,1.381,1
605,1,12,1,f,47,2021-01-11 14:41:51.030120,Sub1_Trial104_1.wav,0,5,673,-0.15673075147070914,True,1.381,1
606,1,12,1,f,47,2021-01-11 14:41:51.030120,Sub1_Trial104_1.wav,0,6,830,10.863451387553631,True,1.381,1
607,1,12,1,f,47,2021-01-11 14:41:51.030120,Sub1_Trial104_1.wav,0,7,1004,1.984326307079963,True,1.381,1
608,1,12,1,f,47,2021-01-11 14:41:51.030120,Sub1_Trial104_1.wav,0,8,1199,-6.203197221396517,True,1.381,1
609,1,12,1,f,47,2021-01-11 14:41:51.030120,Sub1_Trial104_1.wav,0,9,1416,2.9673056701075713,True,1.381,1
610,1,12,1,f,47,2021-01-11 14:41:51.030120,Sub1_Trial104_1.wav,0,10,1657,1.6304036259965575,True,1.381,1
611,1,12,1,f,47,2021-01-11 14:41:51.030120,Sub1_Trial104_1.wav,0,11,1926,-0.2533365604270109,True,1.381,1
612,1,12,1,f,47,2021-01-11 14:41:51.030120,Sub1_Trial104_1.wav,0,12,2226,-1.58200560857003,True,1.381,1
613,1,12,1,f,47,2021-01-11 14:41:51.030120,Sub1_Trial104_1.wav,0,13,2560,2.058301081509291,True,1.381,1
614,1,12,1,f,47,2021-01-11 14:41:51.030120,Sub1_Trial104_1.wav,0,14,2932,-3.3610962757125638,True,1.381,1
615,1,12,1,f,47,2021-01-11 14:41:51.030120,Sub1_Trial104_1.wav,0,15,3346,-2.7255028842729736,True,1.381,1
616,1,12,1,f,47,2021-01-11 14:41:51.030120,Sub1_Trial104_1.wav,0,16,3808,3.7525305662942814,True,1.381,1
617,1,12,1,f,47,2021-01-11 14:41:51.030120,Sub1_Trial104_1.wav,0,17,4322,-6.770636669717735,True,1.381,1
618,1,12,1,f,47,2021-01-11 14:41:51.030120,Sub1_Trial104_1.wav,0,18,4895,-8.166084262347912,True,1.381,1
619,1,12,1,f,47,2021-01-11 14:41:51.030120,Sub1_Trial104_1.wav,0,19,5534,4.679609555597589,True,1.381,1
620,1,12,1,f,47,2021-01-11 14:41:51.030120,Sub1_Trial104_1.wav,0,20,6245,1.4869327867252191,True,1.381,1
621,1,12,1,f,47,2021-01-11 14:41:51.030120,Sub1_Trial104_1.wav,0,21,7037,-3.1962655476643165,True,1.381,1
622,1,12,1,f,47,2021-01-11 14:41:51.030120,Sub1_Trial104_1.wav,0,22,7920,6.679008849572312,True,1.381,1
623,1,12,1,f,47,2021-01-11 14:41:51.030120,Sub1_Trial104_1.wav,0,23,8904,1.9794509637419848,True,1.381,1
624,1,12,1,f,47,2021-01-11 14:41:51.030120,Sub1_Trial104_1.wav,0,24,10000,0.7073046643469931,True,1.381,1
625,1,12,1,f,47,2021-01-11 14:41:51.030120,Sub1_Trial23_1.wav,1,0,100,-0.019307209985976063,False,1.381,1
626,1,12,1,f,47,2021-01-11 14:41:51.030120,Sub1_Trial23_1.wav,1,1,191,-0.014243576335498637,False,1.381,1
627,1,12,1,f,47,2021-01-11 14:41:51.030120,Sub1_Trial23_1.wav,1,2,293,-7.636602862604556,False,1.381,1
628,1,12,1,f,47,2021-01-11 14:41:51.030120,Sub1_Trial23_1.wav,1,3,406,-2.323261373242035,False,1.381,1
629,1,12,1,f,47,2021-01-11 14:41:51.030120,Sub1_Trial23_1.wav,1,4,533,6.842504531887407,False,1.381,1
630,1,12,1,f,47,2021-01-11 14:41:51.030120,Sub1_Trial23_1.wav,1,5,673,-1.7656319225696206,False,1.381,1
631,1,12,1,f,47,2021-01-11 14:41:51.030120,Sub1_Trial23_1.wav,1,6,830,-2.2747857622382672,False,1.381,1
632,1,12,1,f,47,2021-01-11 14:41:51.030120,Sub1_Trial23_1.wav,1,7,1004,-0.8844534722854568,False,1.381,1
633,1,12,1,f,47,2021-01-11 14:41:51.030120,Sub1_Trial23_1.wav,1,8,1199,-6.305095509541276,False,1.381,1
634,1,12,1,f,47,2021-01-11 14:41:51.030120,Sub1_Trial23_1.wav,1,9,1416,6.069666469325773,False,1.381,1
635,1,12,1,f,47,2021-01-11 14:41:51.030120,Sub1_Trial23_1.wav,1,10,1657,-3.634640315494037,False,1.381,1
636,1,12,1,f,47,2021-01-11 14:41:51.030120,Sub1_Trial23_1.wav,1,11,1926,9.863258146677325,False,1.381,1
637,1,12,1,f,47,2021-01-11 14:41:51.030120,Sub1_Trial23_1.wav,1,12,2226,3.3441660556818738,False,1.381,1
638,1,12,1,f,47,2021-01-11 14:41:51.030120,Sub1_Trial23_1.wav,1,13,2560,6.952184029388527,False,1.381,1
639,1,12,1,f,47,2021-01-11 14:41:51.030120,Sub1_Trial23_1.wav,1,14,2932,-7.528044299161005,False,1.381,1
640,1,12,1,f,47,2021-01-11 14:41:51.030120,Sub1_Trial23_1.wav,1,15,3346,-1.0649139765526392,False,1.381,1
641,1,12,1,f,47,2021-01-11 14:41:51.030120,Sub1_Trial23_1.wav,1,16,3808,-5.153750002486736,False,1.381,1
642,1,12,1,f,47,2021-01-11 14:41:51.030120,Sub1_Trial23_1.wav,1,17,4322,-7.106207433645393,False,1.381,1
643,1,12,1,f,47,2021-01-11 14:41:51.030120,Sub1_Trial23_1.wav,1,18,4895,-1.7458996358715964,False,1.381,1
644,1,12,1,f,47,2021-01-11 14:41:51.030120,Sub1_Trial23_1.wav,1,19,5534,7.822333353021097,False,1.381,1
645,1,12,1,f,47,2021-01-11 14:41:51.030120,Sub1_Trial23_1.wav,1,20,6245,2.7755872907452583,False,1.381,1
646,1,12,1,f,47,2021-01-11 14:41:51.030120,Sub1_Trial23_1.wav,1,21,7037,1.5513849974935408,False,1.381,1
647,1,12,1,f,47,2021-01-11 14:41:51.030120,Sub1_Trial23_1.wav,1,22,7920,-4.519685202511389,False,1.381,1
648,1,12,1,f,47,2021-01-11 14:41:51.030120,Sub1_Trial23_1.wav,1,23,8904,2.7622969102355186,False,1.381,1
649,1,12,1,f,47,2021-01-11 14:41:51.030120,Sub1_Trial23_1.wav,1,24,10000,5.177506488848898,False,1.381,1
650,1,13,1,f,47,2021-01-11 14:41:51.030120,Sub1_Trial105_0.wav,0,0,100,0.9831390050253273,False,0.488,1
651,1,13,1,f,47,2021-01-11 14:41:51.030120,Sub1_Trial105_0.wav,0,1,191,2.9060835830227933,False,0.488,1
652,1,13,1,f,47,2021-01-11 14:41:51.030120,Sub1_Trial105_0.wav,0,2,293,-0.8184106014617553,False,0.488,1
653,1,13,1,f,47,2021-01-11 14:41:51.030120,Sub1_Trial105_0.wav,0,3,406,8.852887648569176,False,0.488,1
654,1,13,1,f,47,2021-01-11 14:41:51.030120,Sub1_Trial105_0.wav,0,4,533,3.2300163624446268,False,0.488,1
655,1,13,1,f,47,2021-01-11 14:41:51.030120,Sub1_Trial105_0.wav,0,5,673,-1.2294478623708192,False,0.488,1
656,1,13,1,f,47,2021-01-11 14:41:51.030120,Sub1_Trial105_0.wav,0,6,830,7.806475820305153,False,0.488,1
657,1,13,1,f,47,2021-01-11 14:41:51.030120,Sub1_Trial105_0.wav,0,7,1004,1.6483915308136563,False,0.488,1
658,1,13,1,f,47,2021-01-11 14:41:51.030120,Sub1_Trial105_0.wav,0,8,1199,2.543049540638025,False,0.488,1
659,1,13,1,f,47,2021-01-11 14:41:51.030120,Sub1_Trial105_0.wav,0,9,1416,0.07605425765991798,False,0.488,1
660,1,13,1,f,47,2021-01-11 14:41:51.030120,Sub1_Trial105_0.wav,0,10,1657,0.8553018615432306,False,0.488,1
661,1,13,1,f,47,2021-01-11 14:41:51.030120,Sub1_Trial105_0.wav,0,11,1926,-1.1127829581065254,False,0.488,1
662,1,13,1,f,47,2021-01-11 14:41:51.030120,Sub1_Trial105_0.wav,0,12,2226,5.571336355773057,False,0.488,1
663,1,13,1,f,47,2021-01-11 14:41:51.030120,Sub1_Trial105_0.wav,0,13,2560,-1.3270008287169233,False,0.488,1
664,1,13,1,f,47,2021-01-11 14:41:51.030120,Sub1_Trial105_0.wav,0,14,2932,3.770191193646285,False,0.488,1
665,1,13,1,f,47,2021-01-11 14:41:51.030120,Sub1_Trial105_0.wav,0,15,3346,-4.138134517048428,False,0.488,1
666,1,13,1,f,47,2021-01-11 14:41:51.030120,Sub1_Trial105_0.wav,0,16,3808,-1.7530117777956429,False,0.488,1
667,1,13,1,f,47,2021-01-11 14:41:51.030120,Sub1_Trial105_0.wav,0,17,4322,-3.4905671378635765,False,0.488,1
668,1,13,1,f,47,2021-01-11 14:41:51.030120,Sub1_Trial105_0.wav,0,18,4895,0.7754968854292633,False,0.488,1
669,1,13,1,f,47,2021-01-11 14:41:51.030120,Sub1_Trial105_0.wav,0,19,5534,3.53066852244847,False,0.488,1
670,1,13,1,f,47,2021-01-11 14:41:51.030120,Sub1_Trial105_0.wav,0,20,6245,3.587919913883152,False,0.488,1
671,1,13,1,f,47,2021-01-11 14:41:51.030120,Sub1_Trial105_0.wav,0,21,7037,-5.599379223841,False,0.488,1
672,1,13,1,f,47,2021-01-11 14:41:51.030120,Sub1_Trial105_0.wav,0,22,7920,-8.116703508995618,False,0.488,1
673,1,13,1,f,47,2021-01-11 14:41:51.030120,Sub1_Trial105_0.wav,0,23,8904,-2.9060537896797136,False,0.488,1
674,1,13,1,f,47,2021-01-11 14:41:51.030120,Sub1_Trial105_0.wav,0,24,10000,3.7272330569433176,False,0.488,1
675,1,13,1,f,47,2021-01-11 14:41:51.030120,Sub1_Trial240_0.wav,1,0,100,1.0120002202165308,True,0.488,1
676,1,13,1,f,47,2021-01-11 14:41:51.030120,Sub1_Trial240_0.wav,1,1,191,-2.3366503676854924,True,0.488,1
677,1,13,1,f,47,2021-01-11 14:41:51.030120,Sub1_Trial240_0.wav,1,2,293,-7.48970504632828,True,0.488,1
678,1,13,1,f,47,2021-01-11 14:41:51.030120,Sub1_Trial240_0.wav,1,3,406,3.4261132967380807,True,0.488,1
679,1,13,1,f,47,2021-01-11 14:41:51.030120,Sub1_Trial240_0.wav,1,4,533,1.2463567089297276,True,0.488,1
680,1,13,1,f,47,2021-01-11 14:41:51.030120,Sub1_Trial240_0.wav,1,5,673,0.9528512755890906,True,0.488,1
681,1,13,1,f,47,2021-01-11 14:41:51.030120,Sub1_Trial240_0.wav,1,6,830,6.2067475861578325,True,0.488,1
682,1,13,1,f,47,2021-01-11 14:41:51.030120,Sub1_Trial240_0.wav,1,7,1004,-0.21690057110098102,True,0.488,1
683,1,13,1,f,47,2021-01-11 14:41:51.030120,Sub1_Trial240_0.wav,1,8,1199,-4.735277722876695,True,0.488,1
684,1,13,1,f,47,2021-01-11 14:41:51.030120,Sub1_Trial240_0.wav,1,9,1416,-7.261117010246228,True,0.488,1
685,1,13,1,f,47,2021-01-11 14:41:51.030120,Sub1_Trial240_0.wav,1,10,1657,10.855940396826409,True,0.488,1
686,1,13,1,f,47,2021-01-11 14:41:51.030120,Sub1_Trial240_0.wav,1,11,1926,-0.25168837485749485,True,0.488,1
687,1,13,1,f,47,2021-01-11 14:41:51.030120,Sub1_Trial240_0.wav,1,12,2226,-0.050451957840268194,True,0.488,1
688,1,13,1,f,47,2021-01-11 14:41:51.030120,Sub1_Trial240_0.wav,1,13,2560,-5.272830259221496,True,0.488,1
689,1,13,1,f,47,2021-01-11 14:41:51.030120,Sub1_Trial240_0.wav,1,14,2932,1.65803963850808,True,0.488,1
690,1,13,1,f,47,2021-01-11 14:41:51.030120,Sub1_Trial240_0.wav,1,15,3346,6.1527616270123096,True,0.488,1
691,1,13,1,f,47,2021-01-11 14:41:51.030120,Sub1_Trial240_0.wav,1,16,3808,-0.3731675314075871,True,0.488,1
692,1,13,1,f,47,2021-01-11 14:41:51.030120,Sub1_Trial240_0.wav,1,17,4322,-4.733727135698532,True,0.488,1
693,1,13,1,f,47,2021-01-11 14:41:51.030120,Sub1_Trial240_0.wav,1,18,4895,0.2746527466031532,True,0.488,1
694,1,13,1,f,47,2021-01-11 14:41:51.030120,Sub1_Trial240_0.wav,1,19,5534,4.456257372869072,True,0.488,1
695,1,13,1,f,47,2021-01-11 14:41:51.030120,Sub1_Trial240_0.wav,1,20,6245,-0.3903856411086742,True,0.488,1
696,1,13,1,f,47,2021-01-11 14:41:51.030120,Sub1_Trial240_0.wav,1,21,7037,9.720894316882113,True,0.488,1
697,1,13,1,f,47,2021-01-11 14:41:51.030120,Sub1_Trial240_0.wav,1,22,7920,2.7664550985640033,True,0.488,1
698,1,13,1,f,47,2021-01-11 14:41:51.030120,Sub1_Trial240_0.wav,1,23,8904,0.9514681723969148,True,0.488,1
699,1,13,1,f,47,2021-01-11 14:41:51.030120,Sub1_Trial240_0.wav,1,24,10000,5.517833382004089,True,0.488,1
700,1,14,1,f,47,2021-01-11 14:41:51.030120,Sub1_Trial105_1.wav,0,0,100,-5.195398374080539,False,0.805,1
701,1,14,1,f,47,2021-01-11 14:41:51.030120,Sub1_Trial105_1.wav,0,1,191,4.245630577946324,False,0.805,1
702,1,14,1,f,47,2021-01-11 14:41:51.030120,Sub1_Trial105_1.wav,0,2,293,0.8459823867105407,False,0.805,1
703,1,14,1,f,47,2021-01-11 14:41:51.030120,Sub1_Trial105_1.wav,0,3,406,5.163560072823504,False,0.805,1
704,1,14,1,f,47,2021-01-11 14:41:51.030120,Sub1_Trial105_1.wav,0,4,533,3.967519935582387,False,0.805,1
705,1,14,1,f,47,2021-01-11 14:41:51.030120,Sub1_Trial105_1.wav,0,5,673,-0.9378824846356079,False,0.805,1
706,1,14,1,f,47,2021-01-11 14:41:51.030120,Sub1_Trial105_1.wav,0,6,830,-6.767575016769407,False,0.805,1
707,1,14,1,f,47,2021-01-11 14:41:51.030120,Sub1_Trial105_1.wav,0,7,1004,0.7705753280931724,False,0.805,1
708,1,14,1,f,47,2021-01-11 14:41:51.030120,Sub1_Trial105_1.wav,0,8,1199,-3.394875308355385,False,0.805,1
709,1,14,1,f,47,2021-01-11 14:41:51.030120,Sub1_Trial105_1.wav,0,9,1416,-2.2640966654438737,False,0.805,1
710,1,14,1,f,47,2021-01-11 14:41:51.030120,Sub1_Trial105_1.wav,0,10,1657,-4.972950361049528,False,0.805,1
711,1,14,1,f,47,2021-01-11 14:41:51.030120,Sub1_Trial105_1.wav,0,11,1926,0.8290532931647903,False,0.805,1
712,1,14,1,f,47,2021-01-11 14:41:51.030120,Sub1_Trial105_1.wav,0,12,2226,4.045216385807054,False,0.805,1
713,1,14,1,f,47,2021-01-11 14:41:51.030120,Sub1_Trial105_1.wav,0,13,2560,-3.1378349739785243,False,0.805,1
714,1,14,1,f,47,2021-01-11 14:41:51.030120,Sub1_Trial105_1.wav,0,14,2932,2.545339692299295,False,0.805,1
715,1,14,1,f,47,2021-01-11 14:41:51.030120,Sub1_Trial105_1.wav,0,15,3346,4.618801847390037,False,0.805,1
716,1,14,1,f,47,2021-01-11 14:41:51.030120,Sub1_Trial105_1.wav,0,16,3808,0.4426114699653852,False,0.805,1
717,1,14,1,f,47,2021-01-11 14:41:51.030120,Sub1_Trial105_1.wav,0,17,4322,5.099014019129302,False,0.805,1
718,1,14,1,f,47,2021-01-11 14:41:51.030120,Sub1_Trial105_1.wav,0,18,4895,-8.31079513957338,False,0.805,1
719,1,14,1,f,47,2021-01-11 14:41:51.030120,Sub1_Trial105_1.wav,0,19,5534,3.0575369710808062,False,0.805,1
720,1,14,1,f,47,2021-01-11 14:41:51.030120,Sub1_Trial105_1.wav,0,20,6245,-4.8842713343072415,False,0.805,1
721,1,14,1,f,47,2021-01-11 14:41:51.030120,Sub1_Trial105_1.wav,0,21,7037,0.5596100859269647,False,0.805,1
722,1,14,1,f,47,2021-01-11 14:41:51.030120,Sub1_Trial105_1.wav,0,22,7920,1.8611803684231183,False,0.805,1
723,1,14,1,f,47,2021-01-11 14:41:51.030120,Sub1_Trial105_1.wav,0,23,8904,3.453538977312448,False,0.805,1
724,1,14,1,f,47,2021-01-11 14:41:51.030120,Sub1_Trial105_1.wav,0,24,10000,2.1020857567492177,False,0.805,1
725,1,14,1,f,47,2021-01-11 14:41:51.030120,Sub1_Trial240_1.wav,1,0,100,2.2211992368576965,True,0.805,1
726,1,14,1,f,47,2021-01-11 14:41:51.030120,Sub1_Trial240_1.wav,1,1,191,-0.9436189483195444,True,0.805,1
727,1,14,1,f,47,2021-01-11 14:41:51.030120,Sub1_Trial240_1.wav,1,2,293,-0.6736583838968899,True,0.805,1
728,1,14,1,f,47,2021-01-11 14:41:51.030120,Sub1_Trial240_1.wav,1,3,406,6.295047027462298,True,0.805,1
729,1,14,1,f,47,2021-01-11 14:41:51.030120,Sub1_Trial240_1.wav,1,4,533,3.3234035458846103,True,0.805,1
730,1,14,1,f,47,2021-01-11 14:41:51.030120,Sub1_Trial240_1.wav,1,5,673,-1.9289585599095271,True,0.805,1
731,1,14,1,f,47,2021-01-11 14:41:51.030120,Sub1_Trial240_1.wav,1,6,830,-2.0388285291378283,True,0.805,1
732,1,14,1,f,47,2021-01-11 14:41:51.030120,Sub1_Trial240_1.wav,1,7,1004,-4.635606550407086,True,0.805,1
733,1,14,1,f,47,2021-01-11 14:41:51.030120,Sub1_Trial240_1.wav,1,8,1199,3.907966477749238,True,0.805,1
734,1,14,1,f,47,2021-01-11 14:41:51.030120,Sub1_Trial240_1.wav,1,9,1416,0.8046666348345282,True,0.805,1
735,1,14,1,f,47,2021-01-11 14:41:51.030120,Sub1_Trial240_1.wav,1,10,1657,3.8416457707364815,True,0.805,1
736,1,14,1,f,47,2021-01-11 14:41:51.030120,Sub1_Trial240_1.wav,1,11,1926,-3.2108524773177405,True,0.805,1
737,1,14,1,f,47,2021-01-11 14:41:51.030120,Sub1_Trial240_1.wav,1,12,2226,-4.571939383826611,True,0.805,1
738,1,14,1,f,47,2021-01-11 14:41:51.030120,Sub1_Trial240_1.wav,1,13,2560,6.345291137168835,True,0.805,1
739,1,14,1,f,47,2021-01-11 14:41:51.030120,Sub1_Trial240_1.wav,1,14,2932,-6.039344926262858,True,0.805,1
740,1,14,1,f,47,2021-01-11 14:41:51.030120,Sub1_Trial240_1.wav,1,15,3346,2.2993812108760343,True,0.805,1
741,1,14,1,f,47,2021-01-11 14:41:51.030120,Sub1_Trial240_1.wav,1,16,3808,-6.1625036225921646,True,0.805,1
742,1,14,1,f,47,2021-01-11 14:41:51.030120,Sub1_Trial240_1.wav,1,17,4322,-1.4314204202648968,True,0.805,1
743,1,14,1,f,47,2021-01-11 14:41:51.030120,Sub1_Trial240_1.wav,1,18,4895,-2.8887789520031304,True,0.805,1
744,1,14,1,f,47,2021-01-11 14:41:51.030120,Sub1_Trial240_1.wav,1,19,5534,1.874081058139468,True,0.805,1
745,1,14,1,f,47,2021-01-11 14:41:51.030120,Sub1_Trial240_1.wav,1,20,6245,7.140568457891848,True,0.805,1
746,1,14,1,f,47,2021-01-11 14:41:51.030120,Sub1_Trial240_1.wav,1,21,7037,-0.7708313202198457,True,0.805,1
747,1,14,1,f,47,2021-01-11 14:41:51.030120,Sub1_Trial240_1.wav,1,22,7920,-2.8023145442252893,True,0.805,1
748,1,14,1,f,47,2021-01-11 14:41:51.030120,Sub1_Trial240_1.wav,1,23,8904,-4.2635214179470085,True,0.805,1
749,1,14,1,f,47,2021-01-11 14:41:51.030120,Sub1_Trial240_1.wav,1,24,10000,-1.4995322068045556,True,0.805,1
750,1,15,1,f,47,2021-01-11 14:41:51.030120,Sub1_Trial106_0.wav,0,0,100,-2.6239968360626293,True,0.315,1
751,1,15,1,f,47,2021-01-11 14:41:51.030120,Sub1_Trial106_0.wav,0,1,191,5.019795845507059,True,0.315,1
752,1,15,1,f,47,2021-01-11 14:41:51.030120,Sub1_Trial106_0.wav,0,2,293,1.222119576327242,True,0.315,1
753,1,15,1,f,47,2021-01-11 14:41:51.030120,Sub1_Trial106_0.wav,0,3,406,-0.8161412075173348,True,0.315,1
754,1,15,1,f,47,2021-01-11 14:41:51.030120,Sub1_Trial106_0.wav,0,4,533,-9.61409579110679,True,0.315,1
755,1,15,1,f,47,2021-01-11 14:41:51.030120,Sub1_Trial106_0.wav,0,5,673,-9.377808193902824,True,0.315,1
756,1,15,1,f,47,2021-01-11 14:41:51.030120,Sub1_Trial106_0.wav,0,6,830,-1.9059301709519123,True,0.315,1
757,1,15,1,f,47,2021-01-11 14:41:51.030120,Sub1_Trial106_0.wav,0,7,1004,5.0511188603911235,True,0.315,1
758,1,15,1,f,47,2021-01-11 14:41:51.030120,Sub1_Trial106_0.wav,0,8,1199,-3.1624649191856222,True,0.315,1
759,1,15,1,f,47,2021-01-11 14:41:51.030120,Sub1_Trial106_0.wav,0,9,1416,-2.1517961014707567,True,0.315,1
760,1,15,1,f,47,2021-01-11 14:41:51.030120,Sub1_Trial106_0.wav,0,10,1657,2.420869701364951,True,0.315,1
761,1,15,1,f,47,2021-01-11 14:41:51.030120,Sub1_Trial106_0.wav,0,11,1926,-0.7369322201790556,True,0.315,1
762,1,15,1,f,47,2021-01-11 14:41:51.030120,Sub1_Trial106_0.wav,0,12,2226,-0.22202853189559815,True,0.315,1
763,1,15,1,f,47,2021-01-11 14:41:51.030120,Sub1_Trial106_0.wav,0,13,2560,-4.8224729444461465,True,0.315,1
764,1,15,1,f,47,2021-01-11 14:41:51.030120,Sub1_Trial106_0.wav,0,14,2932,-3.603479912628973,True,0.315,1
765,1,15,1,f,47,2021-01-11 14:41:51.030120,Sub1_Trial106_0.wav,0,15,3346,-0.7540450253756069,True,0.315,1
766,1,15,1,f,47,2021-01-11 14:41:51.030120,Sub1_Trial106_0.wav,0,16,3808,-1.9672801084931235,True,0.315,1
767,1,15,1,f,47,2021-01-11 14:41:51.030120,Sub1_Trial106_0.wav,0,17,4322,10.774611625336076,True,0.315,1
768,1,15,1,f,47,2021-01-11 14:41:51.030120,Sub1_Trial106_0.wav,0,18,4895,-0.704578921320515,True,0.315,1
769,1,15,1,f,47,2021-01-11 14:41:51.030120,Sub1_Trial106_0.wav,0,19,5534,6.590125215753576,True,0.315,1
770,1,15,1,f,47,2021-01-11 14:41:51.030120,Sub1_Trial106_0.wav,0,20,6245,3.157493200721948,True,0.315,1
771,1,15,1,f,47,2021-01-11 14:41:51.030120,Sub1_Trial106_0.wav,0,21,7037,1.6703713954653652,True,0.315,1
772,1,15,1,f,47,2021-01-11 14:41:51.030120,Sub1_Trial106_0.wav,0,22,7920,1.4298635096241774,True,0.315,1
773,1,15,1,f,47,2021-01-11 14:41:51.030120,Sub1_Trial106_0.wav,0,23,8904,1.3586112739488574,True,0.315,1
774,1,15,1,f,47,2021-01-11 14:41:51.030120,Sub1_Trial106_0.wav,0,24,10000,-3.512757009693248,True,0.315,1
775,1,15,1,f,47,2021-01-11 14:41:51.030120,Sub1_Trial241_0.wav,1,0,100,1.3835780277746923,False,0.315,1
776,1,15,1,f,47,2021-01-11 14:41:51.030120,Sub1_Trial241_0.wav,1,1,191,11.974250553873851,False,0.315,1
777,1,15,1,f,47,2021-01-11 14:41:51.030120,Sub1_Trial241_0.wav,1,2,293,1.6083509991232992,False,0.315,1
778,1,15,1,f,47,2021-01-11 14:41:51.030120,Sub1_Trial241_0.wav,1,3,406,-5.005332067732594,False,0.315,1
779,1,15,1,f,47,2021-01-11 14:41:51.030120,Sub1_Trial241_0.wav,1,4,533,-2.936827209303132,False,0.315,1
780,1,15,1,f,47,2021-01-11 14:41:51.030120,Sub1_Trial241_0.wav,1,5,673,8.646072150828235,False,0.315,1
781,1,15,1,f,47,2021-01-11 14:41:51.030120,Sub1_Trial241_0.wav,1,6,830,-3.5217193428797366,False,0.315,1
782,1,15,1,f,47,2021-01-11 14:41:51.030120,Sub1_Trial241_0.wav,1,7,1004,-1.7622586117910264,False,0.315,1
783,1,15,1,f,47,2021-01-11 14:41:51.030120,Sub1_Trial241_0.wav,1,8,1199,-7.168601498674273,False,0.315,1
784,1,15,1,f,47,2021-01-11 14:41:51.030120,Sub1_Trial241_0.wav,1,9,1416,3.5608524442401865,False,0.315,1
785,1,15,1,f,47,2021-01-11 14:41:51.030120,Sub1_Trial241_0.wav,1,10,1657,7.1322280641940425,False,0.315,1
786,1,15,1,f,47,2021-01-11 14:41:51.030120,Sub1_Trial241_0.wav,1,11,1926,2.9307454563728785,False,0.315,1
787,1,15,1,f,47,2021-01-11 14:41:51.030120,Sub1_Trial241_0.wav,1,12,2226,-2.0743644380811,False,0.315,1
788,1,15,1,f,47,2021-01-11 14:41:51.030120,Sub1_Trial241_0.wav,1,13,2560,8.75246023966308,False,0.315,1
789,1,15,1,f,47,2021-01-11 14:41:51.030120,Sub1_Trial241_0.wav,1,14,2932,-4.305645715125993,False,0.315,1
790,1,15,1,f,47,2021-01-11 14:41:51.030120,Sub1_Trial241_0.wav,1,15,3346,-9.939800337038452,False,0.315,1
791,1,15,1,f,47,2021-01-11 14:41:51.030120,Sub1_Trial241_0.wav,1,16,3808,2.2111126165815804,False,0.315,1
792,1,15,1,f,47,2021-01-11 14:41:51.030120,Sub1_Trial241_0.wav,1,17,4322,5.615788023941814,False,0.315,1
793,1,15,1,f,47,2021-01-11 14:41:51.030120,Sub1_Trial241_0.wav,1,18,4895,-6.5175402245094896,False,0.315,1
794,1,15,1,f,47,2021-01-11 14:41:51.030120,Sub1_Trial241_0.wav,1,19,5534,6.136767800131012,False,0.315,1
795,1,15,1,f,47,2021-01-11 14:41:51.030120,Sub1_Trial241_0.wav,1,20,6245,4.4183816427157705,False,0.315,1
796,1,15,1,f,47,2021-01-11 14:41:51.030120,Sub1_Trial241_0.wav,1,21,7037,5.044151029287635,False,0.315,1
797,1,15,1,f,47,2021-01-11 14:41:51.030120,Sub1_Trial241_0.wav,1,22,7920,5.8323741776843985,False,0.315,1
798,1,15,1,f,47,2021-01-11 14:41:51.030120,Sub1_Trial241_0.wav,1,23,8904,-3.968516235505674,False,0.315,1
799,1,15,1,f,47,2021-01-11 14:41:51.030120,Sub1_Trial241_0.wav,1,24,10000,-2.846079379953537,False,0.315,1
800,1,16,1,f,47,2021-01-11 14:41:51.030120,Sub1_Trial106_1.wav,0,0,100,-6.362043417553425,True,0.5489999999999999,1
801,1,16,1,f,47,2021-01-11 14:41:51.030120,Sub1_Trial106_1.wav,0,1,191,3.8208309534139606,True,0.5489999999999999,1
802,1,16,1,f,47,2021-01-11 14:41:51.030120,Sub1_Trial106_1.wav,0,2,293,4.875708908869092,True,0.5489999999999999,1
803,1,16,1,f,47,2021-01-11 14:41:51.030120,Sub1_Trial106_1.wav,0,3,406,-4.067715635785543,True,0.5489999999999999,1
804,1,16,1,f,47,2021-01-11 14:41:51.030120,Sub1_Trial106_1.wav,0,4,533,-2.0518404845894684,True,0.5489999999999999,1
805,1,16,1,f,47,2021-01-11 14:41:51.030120,Sub1_Trial106_1.wav,0,5,673,9.093878893454736,True,0.5489999999999999,1
806,1,16,1,f,47,2021-01-11 14:41:51.030120,Sub1_Trial106_1.wav,0,6,830,6.493618844140937,True,0.5489999999999999,1
807,1,16,1,f,47,2021-01-11 14:41:51.030120,Sub1_Trial106_1.wav,0,7,1004,-0.7499400550829354,True,0.5489999999999999,1
808,1,16,1,f,47,2021-01-11 14:41:51.030120,Sub1_Trial106_1.wav,0,8,1199,5.5634122003440565,True,0.5489999999999999,1
809,1,16,1,f,47,2021-01-11 14:41:51.030120,Sub1_Trial106_1.wav,0,9,1416,7.779195716479442,True,0.5489999999999999,1
810,1,16,1,f,47,2021-01-11 14:41:51.030120,Sub1_Trial106_1.wav,0,10,1657,6.510319066345421,True,0.5489999999999999,1
811,1,16,1,f,47,2021-01-11 14:41:51.030120,Sub1_Trial106_1.wav,0,11,1926,-11.058783894003401,True,0.5489999999999999,1
812,1,16,1,f,47,2021-01-11 14:41:51.030120,Sub1_Trial106_1.wav,0,12,2226,0.3844357433420552,True,0.5489999999999999,1
813,1,16,1,f,47,2021-01-11 14:41:51.030120,Sub1_Trial106_1.wav,0,13,2560,6.8760216770255305,True,0.5489999999999999,1
814,1,16,1,f,47,2021-01-11 14:41:51.030120,Sub1_Trial106_1.wav,0,14,2932,-8.410375894136116,True,0.5489999999999999,1
815,1,16,1,f,47,2021-01-11 14:41:51.030120,Sub1_Trial106_1.wav,0,15,3346,-4.157540390890099,True,0.5489999999999999,1
816,1,16,1,f,47,2021-01-11 14:41:51.030120,Sub1_Trial106_1.wav,0,16,3808,-3.206510239015468,True,0.5489999999999999,1
817,1,16,1,f,47,2021-01-11 14:41:51.030120,Sub1_Trial106_1.wav,0,17,4322,-5.050918982857475,True,0.5489999999999999,1
818,1,16,1,f,47,2021-01-11 14:41:51.030120,Sub1_Trial106_1.wav,0,18,4895,-7.583132828955718,True,0.5489999999999999,1
819,1,16,1,f,47,2021-01-11 14:41:51.030120,Sub1_Trial106_1.wav,0,19,5534,-4.8841185969597785,True,0.5489999999999999,1
820,1,16,1,f,47,2021-01-11 14:41:51.030120,Sub1_Trial106_1.wav,0,20,6245,3.440107698771962,True,0.5489999999999999,1
821,1,16,1,f,47,2021-01-11 14:41:51.030120,Sub1_Trial106_1.wav,0,21,7037,-0.8852609345681686,True,0.5489999999999999,1
822,1,16,1,f,47,2021-01-11 14:41:51.030120,Sub1_Trial106_1.wav,0,22,7920,2.412800022303235,True,0.5489999999999999,1
823,1,16,1,f,47,2021-01-11 14:41:51.030120,Sub1_Trial106_1.wav,0,23,8904,-1.690481150373343,True,0.5489999999999999,1
824,1,16,1,f,47,2021-01-11 14:41:51.030120,Sub1_Trial106_1.wav,0,24,10000,-0.022000542616504755,True,0.5489999999999999,1
825,1,16,1,f,47,2021-01-11 14:41:51.030120,Sub1_Trial241_1.wav,1,0,100,7.317916715310937,False,0.5489999999999999,1
826,1,16,1,f,47,2021-01-11 14:41:51.030120,Sub1_Trial241_1.wav,1,1,191,6.7624101346867,False,0.5489999999999999,1
827,1,16,1,f,47,2021-01-11 14:41:51.030120,Sub1_Trial241_1.wav,1,2,293,0.01975194335156611,False,0.5489999999999999,1
828,1,16,1,f,47,2021-01-11 14:41:51.030120,Sub1_Trial241_1.wav,1,3,406,-4.223838791559819,False,0.5489999999999999,1
829,1,16,1,f,47,2021-01-11 14:41:51.030120,Sub1_Trial241_1.wav,1,4,533,6.146874932457063,False,0.5489999999999999,1
830,1,16,1,f,47,2021-01-11 14:41:51.030120,Sub1_Trial241_1.wav,1,5,673,-7.935729252036142,False,0.5489999999999999,1
831,1,16,1,f,47,2021-01-11 14:41:51.030120,Sub1_Trial241_1.wav,1,6,830,-8.890432534462331,False,0.5489999999999999,1
832,1,16,1,f,47,2021-01-11 14:41:51.030120,Sub1_Trial241_1.wav,1,7,1004,7.042367931349572,False,0.5489999999999999,1
833,1,16,1,f,47,2021-01-11 14:41:51.030120,Sub1_Trial241_1.wav,1,8,1199,6.565394897998341,False,0.5489999999999999,1
834,1,16,1,f,47,2021-01-11 14:41:51.030120,Sub1_Trial241_1.wav,1,9,1416,-2.4058780169854272,False,0.5489999999999999,1
835,1,16,1,f,47,2021-01-11 14:41:51.030120,Sub1_Trial241_1.wav,1,10,1657,8.104530373353862,False,0.5489999999999999,1
836,1,16,1,f,47,2021-01-11 14:41:51.030120,Sub1_Trial241_1.wav,1,11,1926,1.1600551832689658,False,0.5489999999999999,1
837,1,16,1,f,47,2021-01-11 14:41:51.030120,Sub1_Trial241_1.wav,1,12,2226,-2.328543335871944,False,0.5489999999999999,1
838,1,16,1,f,47,2021-01-11 14:41:51.030120,Sub1_Trial241_1.wav,1,13,2560,-5.398115822219537,False,0.5489999999999999,1
839,1,16,1,f,47,2021-01-11 14:41:51.030120,Sub1_Trial241_1.wav,1,14,2932,-1.87519892063576,False,0.5489999999999999,1
840,1,16,1,f,47,2021-01-11 14:41:51.030120,Sub1_Trial241_1.wav,1,15,3346,5.5045249128826965,False,0.5489999999999999,1
841,1,16,1,f,47,2021-01-11 14:41:51.030120,Sub1_Trial241_1.wav,1,16,3808,7.576747648124328,False,0.5489999999999999,1
842,1,16,1,f,47,2021-01-11 14:41:51.030120,Sub1_Trial241_1.wav,1,17,4322,-10.878375865675455,False,0.5489999999999999,1
843,1,16,1,f,47,2021-01-11 14:41:51.030120,Sub1_Trial241_1.wav,1,18,4895,-0.16273557208063322,False,0.5489999999999999,1
844,1,16,1,f,47,2021-01-11 14:41:51.030120,Sub1_Trial241_1.wav,1,19,5534,-1.6985067443924553,False,0.5489999999999999,1
845,1,16,1,f,47,2021-01-11 14:41:51.030120,Sub1_Trial241_1.wav,1,20,6245,-0.8745444838896446,False,0.5489999999999999,1
846,1,16,1,f,47,2021-01-11 14:41:51.030120,Sub1_Trial241_1.wav,1,21,7037,-8.586358299029662,False,0.5489999999999999,1
847,1,16,1,f,47,2021-01-11 14:41:51.030120,Sub1_Trial241_1.wav,1,22,7920,-3.0281540145870744,False,0.5489999999999999,1
848,1,16,1,f,47,2021-01-11 14:41:51.030120,Sub1_Trial241_1.wav,1,23,8904,-4.661777242448629,False,0.5489999999999999,1
849,1,16,1,f,47,2021-01-11 14:41:51.030120,Sub1_Trial241_1.wav,1,24,10000,-0.2813548423288792,False,0.5489999999999999,1
850,1,17,1,f,47,2021-01-11 14:41:51.030120,Sub1_Trial107_0.wav,0,0,100,-3.0482937160103747,False,0.223,1
851,1,17,1,f,47,2021-01-11 14:41:51.030120,Sub1_Trial107_0.wav,0,1,191,5.849494215874403,False,0.223,1
852,1,17,1,f,47,2021-01-11 14:41:51.030120,Sub1_Trial107_0.wav,0,2,293,3.4247778322335405,False,0.223,1
853,1,17,1,f,47,2021-01-11 14:41:51.030120,Sub1_Trial107_0.wav,0,3,406,1.7893825116602358,False,0.223,1
854,1,17,1,f,47,2021-01-11 14:41:51.030120,Sub1_Trial107_0.wav,0,4,533,-3.6517080084649036,False,0.223,1
855,1,17,1,f,47,2021-01-11 14:41:51.030120,Sub1_Trial107_0.wav,0,5,673,-2.85717075194535,False,0.223,1
856,1,17,1,f,47,2021-01-11 14:41:51.030120,Sub1_Trial107_0.wav,0,6,830,-0.7419074848794227,False,0.223,1
857,1,17,1,f,47,2021-01-11 14:41:51.030120,Sub1_Trial107_0.wav,0,7,1004,4.59876884005426,False,0.223,1
858,1,17,1,f,47,2021-01-11 14:41:51.030120,Sub1_Trial107_0.wav,0,8,1199,1.285159825230192,False,0.223,1
859,1,17,1,f,47,2021-01-11 14:41:51.030120,Sub1_Trial107_0.wav,0,9,1416,-0.7345314827498539,False,0.223,1
860,1,17,1,f,47,2021-01-11 14:41:51.030120,Sub1_Trial107_0.wav,0,10,1657,2.2550222491410983,False,0.223,1
861,1,17,1,f,47,2021-01-11 14:41:51.030120,Sub1_Trial107_0.wav,0,11,1926,9.260162111428057,False,0.223,1
862,1,17,1,f,47,2021-01-11 14:41:51.030120,Sub1_Trial107_0.wav,0,12,2226,-1.7530859278288304,False,0.223,1
863,1,17,1,f,47,2021-01-11 14:41:51.030120,Sub1_Trial107_0.wav,0,13,2560,1.5219909948999868,False,0.223,1
864,1,17,1,f,47,2021-01-11 14:41:51.030120,Sub1_Trial107_0.wav,0,14,2932,3.1724106659997338,False,0.223,1
865,1,17,1,f,47,2021-01-11 14:41:51.030120,Sub1_Trial107_0.wav,0,15,3346,-0.17499896736402096,False,0.223,1
866,1,17,1,f,47,2021-01-11 14:41:51.030120,Sub1_Trial107_0.wav,0,16,3808,7.661671311893194,False,0.223,1
867,1,17,1,f,47,2021-01-11 14:41:51.030120,Sub1_Trial107_0.wav,0,17,4322,-1.4312588213421242,False,0.223,1
868,1,17,1,f,47,2021-01-11 14:41:51.030120,Sub1_Trial107_0.wav,0,18,4895,6.527917568816532,False,0.223,1
869,1,17,1,f,47,2021-01-11 14:41:51.030120,Sub1_Trial107_0.wav,0,19,5534,10.261704583029251,False,0.223,1
870,1,17,1,f,47,2021-01-11 14:41:51.030120,Sub1_Trial107_0.wav,0,20,6245,-1.0228794055027657,False,0.223,1
871,1,17,1,f,47,2021-01-11 14:41:51.030120,Sub1_Trial107_0.wav,0,21,7037,0.7488630234669059,False,0.223,1
872,1,17,1,f,47,2021-01-11 14:41:51.030120,Sub1_Trial107_0.wav,0,22,7920,4.2590319522569,False,0.223,1
873,1,17,1,f,47,2021-01-11 14:41:51.030120,Sub1_Trial107_0.wav,0,23,8904,0.5760067004353874,False,0.223,1
874,1,17,1,f,47,2021-01-11 14:41:51.030120,Sub1_Trial107_0.wav,0,24,10000,-5.5467699261905965,False,0.223,1
875,1,17,1,f,47,2021-01-11 14:41:51.030120,Sub1_Trial242_0.wav,1,0,100,-7.445403600679907,True,0.223,1
876,1,17,1,f,47,2021-01-11 14:41:51.030120,Sub1_Trial242_0.wav,1,1,191,1.8306324366340199,True,0.223,1
877,1,17,1,f,47,2021-01-11 14:41:51.030120,Sub1_Trial242_0.wav,1,2,293,2.2652347131919544,True,0.223,1
878,1,17,1,f,47,2021-01-11 14:41:51.030120,Sub1_Trial242_0.wav,1,3,406,3.027369741477328,True,0.223,1
879,1,17,1,f,47,2021-01-11 14:41:51.030120,Sub1_Trial242_0.wav,1,4,533,-3.13542794051072,True,0.223,1
880,1,17,1,f,47,2021-01-11 14:41:51.030120,Sub1_Trial242_0.wav,1,5,673,-4.9708734768209535,True,0.223,1
881,1,17,1,f,47,2021-01-11 14:41:51.030120,Sub1_Trial242_0.wav,1,6,830,1.7543865920292574,True,0.223,1
882,1,17,1,f,47,2021-01-11 14:41:51.030120,Sub1_Trial242_0.wav,1,7,1004,-4.455582883738769,True,0.223,1
883,1,17,1,f,47,2021-01-11 14:41:51.030120,Sub1_Trial242_0.wav,1,8,1199,4.111504243750916,True,0.223,1
884,1,17,1,f,47,2021-01-11 14:41:51.030120,Sub1_Trial242_0.wav,1,9,1416,5.482091023480394,True,0.223,1
885,1,17,1,f,47,2021-01-11 14:41:51.030120,Sub1_Trial242_0.wav,1,10,1657,1.6706258368062517,True,0.223,1
886,1,17,1,f,47,2021-01-11 14:41:51.030120,Sub1_Trial242_0.wav,1,11,1926,-5.168462336732129,True,0.223,1
887,1,17,1,f,47,2021-01-11 14:41:51.030120,Sub1_Trial242_0.wav,1,12,2226,-8.387319132878675,True,0.223,1
888,1,17,1,f,47,2021-01-11 14:41:51.030120,Sub1_Trial242_0.wav,1,13,2560,-4.569687828520316,True,0.223,1
889,1,17,1,f,47,2021-01-11 14:41:51.030120,Sub1_Trial242_0.wav,1,14,2932,0.8188718055611734,True,0.223,1
890,1,17,1,f,47,2021-01-11 14:41:51.030120,Sub1_Trial242_0.wav,1,15,3346,-0.7837386198629999,True,0.223,1
891,1,17,1,f,47,2021-01-11 14:41:51.030120,Sub1_Trial242_0.wav,1,16,3808,-8.051394162001715,True,0.223,1
892,1,17,1,f,47,2021-01-11 14:41:51.030120,Sub1_Trial242_0.wav,1,17,4322,-4.653227728472321,True,0.223,1
893,1,17,1,f,47,2021-01-11 14:41:51.030120,Sub1_Trial242_0.wav,1,18,4895,-2.674249283435004,True,0.223,1
894,1,17,1,f,47,2021-01-11 14:41:51.030120,Sub1_Trial242_0.wav,1,19,5534,1.368854726633343,True,0.223,1
895,1,17,1,f,47,2021-01-11 14:41:51.030120,Sub1_Trial242_0.wav,1,20,6245,-2.1315734859890827,True,0.223,1
896,1,17,1,f,47,2021-01-11 14:41:51.030120,Sub1_Trial242_0.wav,1,21,7037,9.337922567946055,True,0.223,1
897,1,17,1,f,47,2021-01-11 14:41:51.030120,Sub1_Trial242_0.wav,1,22,7920,-0.5326055522309842,True,0.223,1
898,1,17,1,f,47,2021-01-11 14:41:51.030120,Sub1_Trial242_0.wav,1,23,8904,12.302245147902068,True,0.223,1
899,1,17,1,f,47,2021-01-11 14:41:51.030120,Sub1_Trial242_0.wav,1,24,10000,1.2719430667093945,True,0.223,1
900,1,18,1,f,47,2021-01-11 14:41:51.030120,Sub1_Trial107_1.wav,0,0,100,-10.924468057675634,False,0.145,1
901,1,18,1,f,47,2021-01-11 14:41:51.030120,Sub1_Trial107_1.wav,0,1,191,3.860414871311743,False,0.145,1
902,1,18,1,f,47,2021-01-11 14:41:51.030120,Sub1_Trial107_1.wav,0,2,293,-0.016923365932372342,False,0.145,1
903,1,18,1,f,47,2021-01-11 14:41:51.030120,Sub1_Trial107_1.wav,0,3,406,7.333800050048882,False,0.145,1
904,1,18,1,f,47,2021-01-11 14:41:51.030120,Sub1_Trial107_1.wav,0,4,533,6.857540986248169,False,0.145,1
905,1,18,1,f,47,2021-01-11 14:41:51.030120,Sub1_Trial107_1.wav,0,5,673,-2.133533225335784,False,0.145,1
906,1,18,1,f,47,2021-01-11 14:41:51.030120,Sub1_Trial107_1.wav,0,6,830,-2.8998685697829183,False,0.145,1
907,1,18,1,f,47,2021-01-11 14:41:51.030120,Sub1_Trial107_1.wav,0,7,1004,0.758673612514291,False,0.145,1
908,1,18,1,f,47,2021-01-11 14:41:51.030120,Sub1_Trial107_1.wav,0,8,1199,-0.6290954784906218,False,0.145,1
909,1,18,1,f,47,2021-01-11 14:41:51.030120,Sub1_Trial107_1.wav,0,9,1416,-2.1680427641343765,False,0.145,1
910,1,18,1,f,47,2021-01-11 14:41:51.030120,Sub1_Trial107_1.wav,0,10,1657,6.246965928443119,False,0.145,1
911,1,18,1,f,47,2021-01-11 14:41:51.030120,Sub1_Trial107_1.wav,0,11,1926,-6.796658103521344,False,0.145,1
912,1,18,1,f,47,2021-01-11 14:41:51.030120,Sub1_Trial107_1.wav,0,12,2226,-1.159556008452885,False,0.145,1
913,1,18,1,f,47,2021-01-11 14:41:51.030120,Sub1_Trial107_1.wav,0,13,2560,-4.07493800631576,False,0.145,1
914,1,18,1,f,47,2021-01-11 14:41:51.030120,Sub1_Trial107_1.wav,0,14,2932,6.448572447175192,False,0.145,1
915,1,18,1,f,47,2021-01-11 14:41:51.030120,Sub1_Trial107_1.wav,0,15,3346,-1.2662304391978638,False,0.145,1
916,1,18,1,f,47,2021-01-11 14:41:51.030120,Sub1_Trial107_1.wav,0,16,3808,5.575578223005893,False,0.145,1
917,1,18,1,f,47,2021-01-11 14:41:51.030120,Sub1_Trial107_1.wav,0,17,4322,8.887389092294072,False,0.145,1
918,1,18,1,f,47,2021-01-11 14:41:51.030120,Sub1_Trial107_1.wav,0,18,4895,8.338195813233185,False,0.145,1
919,1,18,1,f,47,2021-01-11 14:41:51.030120,Sub1_Trial107_1.wav,0,19,5534,0.2255403511979316,False,0.145,1
920,1,18,1,f,47,2021-01-11 14:41:51.030120,Sub1_Trial107_1.wav,0,20,6245,6.2117967999666135,False,0.145,1
921,1,18,1,f,47,2021-01-11 14:41:51.030120,Sub1_Trial107_1.wav,0,21,7037,-5.4765254743708764,False,0.145,1
922,1,18,1,f,47,2021-01-11 14:41:51.030120,Sub1_Trial107_1.wav,0,22,7920,-3.2603388019122423,False,0.145,1
923,1,18,1,f,47,2021-01-11 14:41:51.030120,Sub1_Trial107_1.wav,0,23,8904,-3.86784450134925,False,0.145,1
924,1,18,1,f,47,2021-01-11 14:41:51.030120,Sub1_Trial107_1.wav,0,24,10000,-1.2004556246390141,False,0.145,1
925,1,18,1,f,47,2021-01-11 14:41:51.030120,Sub1_Trial242_1.wav,1,0,100,-2.624989717742485,True,0.145,1
926,1,18,1,f,47,2021-01-11 14:41:51.030120,Sub1_Trial242_1.wav,1,1,191,5.282356351964772,True,0.145,1
927,1,18,1,f,47,2021-01-11 14:41:51.030120,Sub1_Trial242_1.wav,1,2,293,-0.7734723860176764,True,0.145,1
928,1,18,1,f,47,2021-01-11 14:41:51.030120,Sub1_Trial242_1.wav,1,3,406,8.207043730541582,True,0.145,1
929,1,18,1,f,47,2021-01-11 14:41:51.030120,Sub1_Trial242_1.wav,1,4,533,1.9337330312482317,True,0.145,1
930,1,18,1,f,47,2021-01-11 14:41:51.030120,Sub1_Trial242_1.wav,1,5,673,-3.4932144203074484,True,0.145,1
931,1,18,1,f,47,2021-01-11 14:41:51.030120,Sub1_Trial242_1.wav,1,6,830,4.04065555728957,True,0.145,1
932,1,18,1,f,47,2021-01-11 14:41:51.030120,Sub1_Trial242_1.wav,1,7,1004,-7.024829475361672,True,0.145,1
933,1,18,1,f,47,2021-01-11 14:41:51.030120,Sub1_Trial242_1.wav,1,8,1199,-2.267877102649911,True,0.145,1
