subj,session,trial,block,sex,age,date,stim,stim_order,filter,filter_freq,filter_gain,response,rt
1,1,0,0,f,24,2021-06-21 16:54:49.615460,practice/M_n_cut_practice_a_1.wav,0,0,0.00000000,-3.97306523,True,0.427
1,1,0,0,f,24,2021-06-21 16:54:49.615460,practice/M_n_cut_practice_a_1.wav,0,1,104.58767290,-2.00906891,True,0.427
1,1,0,0,f,24,2021-06-21 16:54:49.615460,practice/M_n_cut_practice_a_1.wav,0,2,224.80189054,0.98478158,True,0.427
1,1,0,0,f,24,2021-06-21 16:54:49.615460,practice/M_n_cut_practice_a_1.wav,0,3,362.97743001,-1.44563179,True,0.427
1,1,0,0,f,24,2021-06-21 16:54:49.615460,practice/M_n_cut_practice_a_1.wav,0,4,521.79790965,-0.56676753,True,0.427
1,1,0,0,f,24,2021-06-21 16:54:49.615460,practice/M_n_cut_practice_a_1.wav,0,5,704.34790983,4.77407612,True,0.427
1,1,0,0,f,24,2021-06-21 16:54:49.615460,practice/M_n_cut_practice_a_1.wav,0,6,914.17288101,3.07262866,True,0.427
1,1,0,0,f,24,2021-06-21 16:54:49.615460,practice/M_n_cut_practice_a_1.wav,0,7,1155.34800284,3.05502310,True,0.427
1,1,0,0,f,24,2021-06-21 16:54:49.615460,practice/M_n_cut_practice_a_1.wav,0,8,1432.55733147,-3.89900967,True,0.427
1,1,0,0,f,24,2021-06-21 16:54:49.615460,practice/M_n_cut_practice_a_1.wav,0,9,1751.18477235,0.65708411,True,0.427
1,1,0,0,f,24,2021-06-21 16:54:49.615460,practice/M_n_cut_practice_a_1.wav,0,10,2117.41864548,0.41127230,True,0.427
1,1,0,0,f,24,2021-06-21 16:54:49.615460,practice/M_n_cut_practice_a_1.wav,0,11,2538.37187364,-0.47891374,True,0.427
1,1,0,0,f,24,2021-06-21 16:54:49.615460,practice/M_n_cut_practice_a_1.wav,0,12,3022.22012828,-0.74453010,True,0.427
1,1,0,0,f,24,2021-06-21 16:54:49.615460,practice/M_n_cut_practice_a_1.wav,0,13,3578.36061576,3.75526281,True,0.427
1,1,0,0,f,24,2021-06-21 16:54:49.615460,practice/M_n_cut_practice_a_1.wav,0,14,4217.59458808,-0.41224653,True,0.427
1,1,0,0,f,24,2021-06-21 16:54:49.615460,practice/M_n_cut_practice_a_1.wav,0,15,4952.33712269,1.07170172,True,0.427
1,1,0,0,f,24,2021-06-21 16:54:49.615460,practice/M_n_cut_practice_a_1.wav,0,16,5796.85824570,-0.27051555,True,0.427
1,1,0,0,f,24,2021-06-21 16:54:49.615460,practice/M_n_cut_practice_a_1.wav,0,17,6767.56008152,3.19766361,True,0.427
1,1,0,0,f,24,2021-06-21 16:54:49.615460,practice/M_n_cut_practice_a_1.wav,0,18,7883.29541175,1.18516506,True,0.427
1,1,0,0,f,24,2021-06-21 16:54:49.615460,practice/M_n_cut_practice_a_1.wav,0,19,9165.73383021,-4.52521201,True,0.427
1,1,0,0,f,24,2021-06-21 16:54:49.615460,practice/M_n_cut_practice_a_1.wav,0,20,10639.78260555,-2.13051961,True,0.427
1,1,0,0,f,24,2021-06-21 16:54:49.615460,practice/M_n_cut_practice_a_1.wav,0,21,12334.07042541,1.42276156,True,0.427
1,1,0,0,f,24,2021-06-21 16:54:49.615460,practice/M_n_cut_practice_a_1.wav,0,22,14281.50341712,3.02570615,True,0.427
1,1,0,0,f,24,2021-06-21 16:54:49.615460,practice/M_n_cut_practice_a_1.wav,0,23,16519.90424416,-3.97755435,True,0.427
1,1,0,0,f,24,2021-06-21 16:54:49.615460,practice/M_n_cut_practice_a_1.wav,0,24,19092.74669051,0.71013413,True,0.427
1,1,0,0,f,24,2021-06-21 16:54:49.615460,practice/M_n_cut_practice_a_1.wav,0,25,22050.00000000,1.59770815,True,0.427
1,1,0,0,f,24,2021-06-21 16:54:49.615460,practice/M_n_cut_practice_a_2.wav,1,0,0.00000000,4.58819139,False,0.427
1,1,0,0,f,24,2021-06-21 16:54:49.615460,practice/M_n_cut_practice_a_2.wav,1,1,104.58767290,0.38420905,False,0.427
1,1,0,0,f,24,2021-06-21 16:54:49.615460,practice/M_n_cut_practice_a_2.wav,1,2,224.80189054,3.31355169,False,0.427
1,1,0,0,f,24,2021-06-21 16:54:49.615460,practice/M_n_cut_practice_a_2.wav,1,3,362.97743001,-1.50075041,False,0.427
1,1,0,0,f,24,2021-06-21 16:54:49.615460,practice/M_n_cut_practice_a_2.wav,1,4,521.79790965,-4.02152596,False,0.427
1,1,0,0,f,24,2021-06-21 16:54:49.615460,practice/M_n_cut_practice_a_2.wav,1,5,704.34790983,1.32948124,False,0.427
1,1,0,0,f,24,2021-06-21 16:54:49.615460,practice/M_n_cut_practice_a_2.wav,1,6,914.17288101,-4.09670217,False,0.427
1,1,0,0,f,24,2021-06-21 16:54:49.615460,practice/M_n_cut_practice_a_2.wav,1,7,1155.34800284,1.32804793,False,0.427
1,1,0,0,f,24,2021-06-21 16:54:49.615460,practice/M_n_cut_practice_a_2.wav,1,8,1432.55733147,-1.80515940,False,0.427
1,1,0,0,f,24,2021-06-21 16:54:49.615460,practice/M_n_cut_practice_a_2.wav,1,9,1751.18477235,1.68101120,False,0.427
1,1,0,0,f,24,2021-06-21 16:54:49.615460,practice/M_n_cut_practice_a_2.wav,1,10,2117.41864548,-0.20181321,False,0.427
1,1,0,0,f,24,2021-06-21 16:54:49.615460,practice/M_n_cut_practice_a_2.wav,1,11,2538.37187364,-1.14576093,False,0.427
1,1,0,0,f,24,2021-06-21 16:54:49.615460,practice/M_n_cut_practice_a_2.wav,1,12,3022.22012828,-4.49734638,False,0.427
1,1,0,0,f,24,2021-06-21 16:54:49.615460,practice/M_n_cut_practice_a_2.wav,1,13,3578.36061576,0.48575382,False,0.427
1,1,0,0,f,24,2021-06-21 16:54:49.615460,practice/M_n_cut_practice_a_2.wav,1,14,4217.59458808,1.52691912,False,0.427
1,1,0,0,f,24,2021-06-21 16:54:49.615460,practice/M_n_cut_practice_a_2.wav,1,15,4952.33712269,0.14136143,False,0.427
1,1,0,0,f,24,2021-06-21 16:54:49.615460,practice/M_n_cut_practice_a_2.wav,1,16,5796.85824570,2.06987844,False,0.427
1,1,0,0,f,24,2021-06-21 16:54:49.615460,practice/M_n_cut_practice_a_2.wav,1,17,6767.56008152,-4.70966314,False,0.427
1,1,0,0,f,24,2021-06-21 16:54:49.615460,practice/M_n_cut_practice_a_2.wav,1,18,7883.29541175,-4.84018484,False,0.427
1,1,0,0,f,24,2021-06-21 16:54:49.615460,practice/M_n_cut_practice_a_2.wav,1,19,9165.73383021,1.08476750,False,0.427
1,1,0,0,f,24,2021-06-21 16:54:49.615460,practice/M_n_cut_practice_a_2.wav,1,20,10639.78260555,-2.91798083,False,0.427
1,1,0,0,f,24,2021-06-21 16:54:49.615460,practice/M_n_cut_practice_a_2.wav,1,21,12334.07042541,-4.52739269,False,0.427
1,1,0,0,f,24,2021-06-21 16:54:49.615460,practice/M_n_cut_practice_a_2.wav,1,22,14281.50341712,-0.70374908,False,0.427
1,1,0,0,f,24,2021-06-21 16:54:49.615460,practice/M_n_cut_practice_a_2.wav,1,23,16519.90424416,4.88451900,False,0.427
1,1,0,0,f,24,2021-06-21 16:54:49.615460,practice/M_n_cut_practice_a_2.wav,1,24,19092.74669051,-4.43692226,False,0.427
1,1,0,0,f,24,2021-06-21 16:54:49.615460,practice/M_n_cut_practice_a_2.wav,1,25,22050.00000000,-3.69134890,False,0.427
1,1,1,0,f,24,2021-06-21 16:54:49.615460,practice/M_n_cut_smile_controls.wav,0,0,100.0,-0.8413748087013819,True,0.349
1,1,1,0,f,24,2021-06-21 16:54:49.615460,practice/M_n_cut_smile_controls.wav,0,1,191.0,-0.508212207818517,True,0.349
1,1,1,0,f,24,2021-06-21 16:54:49.615460,practice/M_n_cut_smile_controls.wav,0,2,293.0,-0.7064540836890618,True,0.349
1,1,1,0,f,24,2021-06-21 16:54:49.615460,practice/M_n_cut_smile_controls.wav,0,3,406.0,-1.563085776129798,True,0.349
1,1,1,0,f,24,2021-06-21 16:54:49.615460,practice/M_n_cut_smile_controls.wav,0,4,533.0,-1.0042739144132906,True,0.349
1,1,1,0,f,24,2021-06-21 16:54:49.615460,practice/M_n_cut_smile_controls.wav,0,5,673.0,0.5503436455299164,True,0.349
1,1,1,0,f,24,2021-06-21 16:54:49.615460,practice/M_n_cut_smile_controls.wav,0,6,830.0,0.6355236363614536,True,0.349
1,1,1,0,f,24,2021-06-21 16:54:49.615460,practice/M_n_cut_smile_controls.wav,0,7,1004.0,0.18258331583897092,True,0.349
1,1,1,0,f,24,2021-06-21 16:54:49.615460,practice/M_n_cut_smile_controls.wav,0,8,1199.0,1.0775510715714662,True,0.349
1,1,1,0,f,24,2021-06-21 16:54:49.615460,practice/M_n_cut_smile_controls.wav,0,9,1416.0,0.07035631583735258,True,0.349
1,1,1,0,f,24,2021-06-21 16:54:49.615460,practice/M_n_cut_smile_controls.wav,0,10,1657.0,-0.17815117497723656,True,0.349
1,1,1,0,f,24,2021-06-21 16:54:49.615460,practice/M_n_cut_smile_controls.wav,0,11,1926.0,-0.1694125054827026,True,0.349
1,1,1,0,f,24,2021-06-21 16:54:49.615460,practice/M_n_cut_smile_controls.wav,0,12,2226.0,0.16378442502596796,True,0.349
1,1,1,0,f,24,2021-06-21 16:54:49.615460,practice/M_n_cut_smile_controls.wav,0,13,2560.0,0.34787304916463235,True,0.349
1,1,1,0,f,24,2021-06-21 16:54:49.615460,practice/M_n_cut_smile_controls.wav,0,14,2932.0,0.0626149612132311,True,0.349
1,1,1,0,f,24,2021-06-21 16:54:49.615460,practice/M_n_cut_smile_controls.wav,0,15,3346.0,0.2996597360864252,True,0.349
1,1,1,0,f,24,2021-06-21 16:54:49.615460,practice/M_n_cut_smile_controls.wav,0,16,3808.0,0.42937102971314384,True,0.349
1,1,1,0,f,24,2021-06-21 16:54:49.615460,practice/M_n_cut_smile_controls.wav,0,17,4322.0,-0.41737623835229487,True,0.349
1,1,1,0,f,24,2021-06-21 16:54:49.615460,practice/M_n_cut_smile_controls.wav,0,18,4895.0,0.059966459920471,True,0.349
1,1,1,0,f,24,2021-06-21 16:54:49.615460,practice/M_n_cut_smile_controls.wav,0,19,5534.0,0.27708525932290595,True,0.349
1,1,1,0,f,24,2021-06-21 16:54:49.615460,practice/M_n_cut_smile_controls.wav,0,20,6245.0,0.17960724922351168,True,0.349
1,1,1,0,f,24,2021-06-21 16:54:49.615460,practice/M_n_cut_smile_controls.wav,0,21,7037.0,0.1292321690281848,True,0.349
1,1,1,0,f,24,2021-06-21 16:54:49.615460,practice/M_n_cut_smile_controls.wav,0,22,7920.0,0.0646792137345456,True,0.349
1,1,1,0,f,24,2021-06-21 16:54:49.615460,practice/M_n_cut_smile_controls.wav,0,23,8904.0,0.35333251063145654,True,0.349
1,1,1,0,f,24,2021-06-21 16:54:49.615460,practice/M_n_cut_smile_controls.wav,0,24,10000.0,0.5238291016113881,True,0.349
1,1,1,0,f,24,2021-06-21 16:54:49.615460,practice/M_n_cut_antismile_controls.wav,1,0,100.0,0.5258592554383636,False,0.349
1,1,1,0,f,24,2021-06-21 16:54:49.615460,practice/M_n_cut_antismile_controls.wav,1,1,191.0,0.3176326298865731,False,0.349
1,1,1,0,f,24,2021-06-21 16:54:49.615460,practice/M_n_cut_antismile_controls.wav,1,2,293.0,0.44153380230566364,False,0.349
1,1,1,0,f,24,2021-06-21 16:54:49.615460,practice/M_n_cut_antismile_controls.wav,1,3,406.0,0.9769286100811237,False,0.349
1,1,1,0,f,24,2021-06-21 16:54:49.615460,practice/M_n_cut_antismile_controls.wav,1,4,533.0,0.6276711965083066,False,0.349
1,1,1,0,f,24,2021-06-21 16:54:49.615460,practice/M_n_cut_antismile_controls.wav,1,5,673.0,-0.3439647784561977,False,0.349
1,1,1,0,f,24,2021-06-21 16:54:49.615460,practice/M_n_cut_antismile_controls.wav,1,6,830.0,-0.3972022727259084,False,0.349
1,1,1,0,f,24,2021-06-21 16:54:49.615460,practice/M_n_cut_antismile_controls.wav,1,7,1004.0,-0.11411457239935671,False,0.349
1,1,1,0,f,24,2021-06-21 16:54:49.615460,practice/M_n_cut_antismile_controls.wav,1,8,1199.0,-0.6734694197321663,False,0.349
1,1,1,0,f,24,2021-06-21 16:54:49.615460,practice/M_n_cut_antismile_controls.wav,1,9,1416.0,-0.04397269739834536,False,0.349
1,1,1,0,f,24,2021-06-21 16:54:49.615460,practice/M_n_cut_antismile_controls.wav,1,10,1657.0,0.11134448436077295,False,0.349
1,1,1,0,f,24,2021-06-21 16:54:49.615460,practice/M_n_cut_antismile_controls.wav,1,11,1926.0,0.10588281592668904,False,0.349
1,1,1,0,f,24,2021-06-21 16:54:49.615460,practice/M_n_cut_antismile_controls.wav,1,12,2226.0,-0.10236526564122989,False,0.349
1,1,1,0,f,24,2021-06-21 16:54:49.615460,practice/M_n_cut_antismile_controls.wav,1,13,2560.0,-0.21742065572789512,False,0.349
1,1,1,0,f,24,2021-06-21 16:54:49.615460,practice/M_n_cut_antismile_controls.wav,1,14,2932.0,-0.039134350758269425,False,0.349
1,1,1,0,f,24,2021-06-21 16:54:49.615460,practice/M_n_cut_antismile_controls.wav,1,15,3346.0,-0.18728733505401565,False,0.349
1,1,1,0,f,24,2021-06-21 16:54:49.615460,practice/M_n_cut_antismile_controls.wav,1,16,3808.0,-0.2683568935707148,False,0.349
1,1,1,0,f,24,2021-06-21 16:54:49.615460,practice/M_n_cut_antismile_controls.wav,1,17,4322.0,0.26086014897018434,False,0.349
1,1,1,0,f,24,2021-06-21 16:54:49.615460,practice/M_n_cut_antismile_controls.wav,1,18,4895.0,-0.03747903745029435,False,0.349
1,1,1,0,f,24,2021-06-21 16:54:49.615460,practice/M_n_cut_antismile_controls.wav,1,19,5534.0,-0.17317828707681623,False,0.349
1,1,1,0,f,24,2021-06-21 16:54:49.615460,practice/M_n_cut_antismile_controls.wav,1,20,6245.0,-0.1122545307646948,False,0.349
1,1,1,0,f,24,2021-06-21 16:54:49.615460,practice/M_n_cut_antismile_controls.wav,1,21,7037.0,-0.08077010564261548,False,0.349
1,1,1,0,f,24,2021-06-21 16:54:49.615460,practice/M_n_cut_antismile_controls.wav,1,22,7920.0,-0.040424508584090926,False,0.349
1,1,1,0,f,24,2021-06-21 16:54:49.615460,practice/M_n_cut_antismile_controls.wav,1,23,8904.0,-0.22083281914466038,False,0.349
1,1,1,0,f,24,2021-06-21 16:54:49.615460,practice/M_n_cut_antismile_controls.wav,1,24,10000.0,-0.3273931885071175,False,0.349
1,1,2,0,f,24,2021-06-21 16:54:49.615460,practice/M_n_cut_practice_a_3.wav,0,0,0.00000000,-3.60273504,True,0.142
1,1,2,0,f,24,2021-06-21 16:54:49.615460,practice/M_n_cut_practice_a_3.wav,0,1,104.58767290,0.03963354,True,0.142
1,1,2,0,f,24,2021-06-21 16:54:49.615460,practice/M_n_cut_practice_a_3.wav,0,2,224.80189054,-1.39376076,True,0.142
1,1,2,0,f,24,2021-06-21 16:54:49.615460,practice/M_n_cut_practice_a_3.wav,0,3,362.97743001,4.25017895,True,0.142
1,1,2,0,f,24,2021-06-21 16:54:49.615460,practice/M_n_cut_practice_a_3.wav,0,4,521.79790965,0.65105748,True,0.142
1,1,2,0,f,24,2021-06-21 16:54:49.615460,practice/M_n_cut_practice_a_3.wav,0,5,704.34790983,-1.81995132,True,0.142
1,1,2,0,f,24,2021-06-21 16:54:49.615460,practice/M_n_cut_practice_a_3.wav,0,6,914.17288101,0.81909287,True,0.142
1,1,2,0,f,24,2021-06-21 16:54:49.615460,practice/M_n_cut_practice_a_3.wav,0,7,1155.34800284,-3.84833970,True,0.142
1,1,2,0,f,24,2021-06-21 16:54:49.615460,practice/M_n_cut_practice_a_3.wav,0,8,1432.55733147,-0.35946654,True,0.142
1,1,2,0,f,24,2021-06-21 16:54:49.615460,practice/M_n_cut_practice_a_3.wav,0,9,1751.18477235,-2.89956630,True,0.142
1,1,2,0,f,24,2021-06-21 16:54:49.615460,practice/M_n_cut_practice_a_3.wav,0,10,2117.41864548,0.43776068,True,0.142
1,1,2,0,f,24,2021-06-21 16:54:49.615460,practice/M_n_cut_practice_a_3.wav,0,11,2538.37187364,-0.11053798,True,0.142
1,1,2,0,f,24,2021-06-21 16:54:49.615460,practice/M_n_cut_practice_a_3.wav,0,12,3022.22012828,4.09018952,True,0.142
1,1,2,0,f,24,2021-06-21 16:54:49.615460,practice/M_n_cut_practice_a_3.wav,0,13,3578.36061576,-2.90408585,True,0.142
1,1,2,0,f,24,2021-06-21 16:54:49.615460,practice/M_n_cut_practice_a_3.wav,0,14,4217.59458808,-2.51283488,True,0.142
1,1,2,0,f,24,2021-06-21 16:54:49.615460,practice/M_n_cut_practice_a_3.wav,0,15,4952.33712269,-0.12270824,True,0.142
1,1,2,0,f,24,2021-06-21 16:54:49.615460,practice/M_n_cut_practice_a_3.wav,0,16,5796.85824570,1.39937266,True,0.142
1,1,2,0,f,24,2021-06-21 16:54:49.615460,practice/M_n_cut_practice_a_3.wav,0,17,6767.56008152,1.89996744,True,0.142
1,1,2,0,f,24,2021-06-21 16:54:49.615460,practice/M_n_cut_practice_a_3.wav,0,18,7883.29541175,2.87511044,True,0.142
1,1,2,0,f,24,2021-06-21 16:54:49.615460,practice/M_n_cut_practice_a_3.wav,0,19,9165.73383021,-2.09206272,True,0.142
1,1,2,0,f,24,2021-06-21 16:54:49.615460,practice/M_n_cut_practice_a_3.wav,0,20,10639.78260555,0.81967019,True,0.142
1,1,2,0,f,24,2021-06-21 16:54:49.615460,practice/M_n_cut_practice_a_3.wav,0,21,12334.07042541,4.91405871,True,0.142
1,1,2,0,f,24,2021-06-21 16:54:49.615460,practice/M_n_cut_practice_a_3.wav,0,22,14281.50341712,4.05986882,True,0.142
1,1,2,0,f,24,2021-06-21 16:54:49.615460,practice/M_n_cut_practice_a_3.wav,0,23,16519.90424416,-2.76560565,True,0.142
1,1,2,0,f,24,2021-06-21 16:54:49.615460,practice/M_n_cut_practice_a_3.wav,0,24,19092.74669051,3.68539463,True,0.142
1,1,2,0,f,24,2021-06-21 16:54:49.615460,practice/M_n_cut_practice_a_3.wav,0,25,22050.00000000,2.93108139,True,0.142
1,1,2,0,f,24,2021-06-21 16:54:49.615460,practice/M_n_cut_practice_a_4.wav,1,0,0.00000000,-1.75009646,False,0.142
1,1,2,0,f,24,2021-06-21 16:54:49.615460,practice/M_n_cut_practice_a_4.wav,1,1,104.58767290,-4.68949526,False,0.142
1,1,2,0,f,24,2021-06-21 16:54:49.615460,practice/M_n_cut_practice_a_4.wav,1,2,224.80189054,1.59088497,False,0.142
1,1,2,0,f,24,2021-06-21 16:54:49.615460,practice/M_n_cut_practice_a_4.wav,1,3,362.97743001,-4.10668826,False,0.142
1,1,2,0,f,24,2021-06-21 16:54:49.615460,practice/M_n_cut_practice_a_4.wav,1,4,521.79790965,-0.27539168,False,0.142
1,1,2,0,f,24,2021-06-21 16:54:49.615460,practice/M_n_cut_practice_a_4.wav,1,5,704.34790983,0.00787030,False,0.142
1,1,2,0,f,24,2021-06-21 16:54:49.615460,practice/M_n_cut_practice_a_4.wav,1,6,914.17288101,4.14190553,False,0.142
1,1,2,0,f,24,2021-06-21 16:54:49.615460,practice/M_n_cut_practice_a_4.wav,1,7,1155.34800284,-3.91776862,False,0.142
1,1,2,0,f,24,2021-06-21 16:54:49.615460,practice/M_n_cut_practice_a_4.wav,1,8,1432.55733147,0.87917740,False,0.142
1,1,2,0,f,24,2021-06-21 16:54:49.615460,practice/M_n_cut_practice_a_4.wav,1,9,1751.18477235,-0.89114449,False,0.142
1,1,2,0,f,24,2021-06-21 16:54:49.615460,practice/M_n_cut_practice_a_4.wav,1,10,2117.41864548,4.42351000,False,0.142
1,1,2,0,f,24,2021-06-21 16:54:49.615460,practice/M_n_cut_practice_a_4.wav,1,11,2538.37187364,-4.76809712,False,0.142
1,1,2,0,f,24,2021-06-21 16:54:49.615460,practice/M_n_cut_practice_a_4.wav,1,12,3022.22012828,3.18069417,False,0.142
1,1,2,0,f,24,2021-06-21 16:54:49.615460,practice/M_n_cut_practice_a_4.wav,1,13,3578.36061576,0.07917984,False,0.142
1,1,2,0,f,24,2021-06-21 16:54:49.615460,practice/M_n_cut_practice_a_4.wav,1,14,4217.59458808,4.18290699,False,0.142
1,1,2,0,f,24,2021-06-21 16:54:49.615460,practice/M_n_cut_practice_a_4.wav,1,15,4952.33712269,1.54488285,False,0.142
1,1,2,0,f,24,2021-06-21 16:54:49.615460,practice/M_n_cut_practice_a_4.wav,1,16,5796.85824570,-4.46972323,False,0.142
1,1,2,0,f,24,2021-06-21 16:54:49.615460,practice/M_n_cut_practice_a_4.wav,1,17,6767.56008152,-0.18022610,False,0.142
1,1,2,0,f,24,2021-06-21 16:54:49.615460,practice/M_n_cut_practice_a_4.wav,1,18,7883.29541175,1.66985694,False,0.142
1,1,2,0,f,24,2021-06-21 16:54:49.615460,practice/M_n_cut_practice_a_4.wav,1,19,9165.73383021,-1.97569442,False,0.142
1,1,2,0,f,24,2021-06-21 16:54:49.615460,practice/M_n_cut_practice_a_4.wav,1,20,10639.78260555,1.62508036,False,0.142
1,1,2,0,f,24,2021-06-21 16:54:49.615460,practice/M_n_cut_practice_a_4.wav,1,21,12334.07042541,0.12211539,False,0.142
1,1,2,0,f,24,2021-06-21 16:54:49.615460,practice/M_n_cut_practice_a_4.wav,1,22,14281.50341712,3.17132252,False,0.142
1,1,2,0,f,24,2021-06-21 16:54:49.615460,practice/M_n_cut_practice_a_4.wav,1,23,16519.90424416,0.07485103,False,0.142
1,1,2,0,f,24,2021-06-21 16:54:49.615460,practice/M_n_cut_practice_a_4.wav,1,24,19092.74669051,0.56296769,False,0.142
1,1,2,0,f,24,2021-06-21 16:54:49.615460,practice/M_n_cut_practice_a_4.wav,1,25,22050.00000000,-4.94983914,False,0.142
1,1,3,0,f,24,2021-06-21 16:54:49.615460,practice/M_n_cut_smile_controls.wav,0,0,100.0,-0.8413748087013819,True,0.139
1,1,3,0,f,24,2021-06-21 16:54:49.615460,practice/M_n_cut_smile_controls.wav,0,1,191.0,-0.508212207818517,True,0.139
1,1,3,0,f,24,2021-06-21 16:54:49.615460,practice/M_n_cut_smile_controls.wav,0,2,293.0,-0.7064540836890618,True,0.139
1,1,3,0,f,24,2021-06-21 16:54:49.615460,practice/M_n_cut_smile_controls.wav,0,3,406.0,-1.563085776129798,True,0.139
1,1,3,0,f,24,2021-06-21 16:54:49.615460,practice/M_n_cut_smile_controls.wav,0,4,533.0,-1.0042739144132906,True,0.139
1,1,3,0,f,24,2021-06-21 16:54:49.615460,practice/M_n_cut_smile_controls.wav,0,5,673.0,0.5503436455299164,True,0.139
1,1,3,0,f,24,2021-06-21 16:54:49.615460,practice/M_n_cut_smile_controls.wav,0,6,830.0,0.6355236363614536,True,0.139
1,1,3,0,f,24,2021-06-21 16:54:49.615460,practice/M_n_cut_smile_controls.wav,0,7,1004.0,0.18258331583897092,True,0.139
1,1,3,0,f,24,2021-06-21 16:54:49.615460,practice/M_n_cut_smile_controls.wav,0,8,1199.0,1.0775510715714662,True,0.139
1,1,3,0,f,24,2021-06-21 16:54:49.615460,practice/M_n_cut_smile_controls.wav,0,9,1416.0,0.07035631583735258,True,0.139
1,1,3,0,f,24,2021-06-21 16:54:49.615460,practice/M_n_cut_smile_controls.wav,0,10,1657.0,-0.17815117497723656,True,0.139
1,1,3,0,f,24,2021-06-21 16:54:49.615460,practice/M_n_cut_smile_controls.wav,0,11,1926.0,-0.1694125054827026,True,0.139
1,1,3,0,f,24,2021-06-21 16:54:49.615460,practice/M_n_cut_smile_controls.wav,0,12,2226.0,0.16378442502596796,True,0.139
1,1,3,0,f,24,2021-06-21 16:54:49.615460,practice/M_n_cut_smile_controls.wav,0,13,2560.0,0.34787304916463235,True,0.139
1,1,3,0,f,24,2021-06-21 16:54:49.615460,practice/M_n_cut_smile_controls.wav,0,14,2932.0,0.0626149612132311,True,0.139
1,1,3,0,f,24,2021-06-21 16:54:49.615460,practice/M_n_cut_smile_controls.wav,0,15,3346.0,0.2996597360864252,True,0.139
1,1,3,0,f,24,2021-06-21 16:54:49.615460,practice/M_n_cut_smile_controls.wav,0,16,3808.0,0.42937102971314384,True,0.139
1,1,3,0,f,24,2021-06-21 16:54:49.615460,practice/M_n_cut_smile_controls.wav,0,17,4322.0,-0.41737623835229487,True,0.139
1,1,3,0,f,24,2021-06-21 16:54:49.615460,practice/M_n_cut_smile_controls.wav,0,18,4895.0,0.059966459920471,True,0.139
1,1,3,0,f,24,2021-06-21 16:54:49.615460,practice/M_n_cut_smile_controls.wav,0,19,5534.0,0.27708525932290595,True,0.139
1,1,3,0,f,24,2021-06-21 16:54:49.615460,practice/M_n_cut_smile_controls.wav,0,20,6245.0,0.17960724922351168,True,0.139
1,1,3,0,f,24,2021-06-21 16:54:49.615460,practice/M_n_cut_smile_controls.wav,0,21,7037.0,0.1292321690281848,True,0.139
1,1,3,0,f,24,2021-06-21 16:54:49.615460,practice/M_n_cut_smile_controls.wav,0,22,7920.0,0.0646792137345456,True,0.139
1,1,3,0,f,24,2021-06-21 16:54:49.615460,practice/M_n_cut_smile_controls.wav,0,23,8904.0,0.35333251063145654,True,0.139
1,1,3,0,f,24,2021-06-21 16:54:49.615460,practice/M_n_cut_smile_controls.wav,0,24,10000.0,0.5238291016113881,True,0.139
1,1,3,0,f,24,2021-06-21 16:54:49.615460,practice/M_n_cut_antismile_tours.wav,1,0,100.0,0.32790130543443463,False,0.139
1,1,3,0,f,24,2021-06-21 16:54:49.615460,practice/M_n_cut_antismile_tours.wav,1,1,191.0,0.8071364324035921,False,0.139
1,1,3,0,f,24,2021-06-21 16:54:49.615460,practice/M_n_cut_antismile_tours.wav,1,2,293.0,0.582123610043553,False,0.139
1,1,3,0,f,24,2021-06-21 16:54:49.615460,practice/M_n_cut_antismile_tours.wav,1,3,406.0,1.0140082293210155,False,0.139
1,1,3,0,f,24,2021-06-21 16:54:49.615460,practice/M_n_cut_antismile_tours.wav,1,4,533.0,1.5602554184356976,False,0.139
1,1,3,0,f,24,2021-06-21 16:54:49.615460,practice/M_n_cut_antismile_tours.wav,1,5,673.0,0.023188630015347246,False,0.139
1,1,3,0,f,24,2021-06-21 16:54:49.615460,practice/M_n_cut_antismile_tours.wav,1,6,830.0,-0.6101534486353236,False,0.139
1,1,3,0,f,24,2021-06-21 16:54:49.615460,practice/M_n_cut_antismile_tours.wav,1,7,1004.0,-0.3548441596986841,False,0.139
1,1,3,0,f,24,2021-06-21 16:54:49.615460,practice/M_n_cut_antismile_tours.wav,1,8,1199.0,-0.30599388164314356,False,0.139
1,1,3,0,f,24,2021-06-21 16:54:49.615460,practice/M_n_cut_antismile_tours.wav,1,9,1416.0,0.21693787511408644,False,0.139
1,1,3,0,f,24,2021-06-21 16:54:49.615460,practice/M_n_cut_antismile_tours.wav,1,10,1657.0,-0.2097701057829011,False,0.139
1,1,3,0,f,24,2021-06-21 16:54:49.615460,practice/M_n_cut_antismile_tours.wav,1,11,1926.0,0.4803248463849489,False,0.139
1,1,3,0,f,24,2021-06-21 16:54:49.615460,practice/M_n_cut_antismile_tours.wav,1,12,2226.0,0.05824586400483771,False,0.139
1,1,3,0,f,24,2021-06-21 16:54:49.615460,practice/M_n_cut_antismile_tours.wav,1,13,2560.0,-0.07967691123039847,False,0.139
1,1,3,0,f,24,2021-06-21 16:54:49.615460,practice/M_n_cut_antismile_tours.wav,1,14,2932.0,-0.3977737983665839,False,0.139
1,1,3,0,f,24,2021-06-21 16:54:49.615460,practice/M_n_cut_antismile_tours.wav,1,15,3346.0,-0.0627928749462618,False,0.139
1,1,3,0,f,24,2021-06-21 16:54:49.615460,practice/M_n_cut_antismile_tours.wav,1,16,3808.0,-0.3051876635285592,False,0.139
1,1,3,0,f,24,2021-06-21 16:54:49.615460,practice/M_n_cut_antismile_tours.wav,1,17,4322.0,0.02410972791995148,False,0.139
1,1,3,0,f,24,2021-06-21 16:54:49.615460,practice/M_n_cut_antismile_tours.wav,1,18,4895.0,0.20234496801960317,False,0.139
1,1,3,0,f,24,2021-06-21 16:54:49.615460,practice/M_n_cut_antismile_tours.wav,1,19,5534.0,-0.10243873713564498,False,0.139
1,1,3,0,f,24,2021-06-21 16:54:49.615460,practice/M_n_cut_antismile_tours.wav,1,20,6245.0,-0.37082597171598497,False,0.139
1,1,3,0,f,24,2021-06-21 16:54:49.615460,practice/M_n_cut_antismile_tours.wav,1,21,7037.0,-0.21039849166199884,False,0.139
1,1,3,0,f,24,2021-06-21 16:54:49.615460,practice/M_n_cut_antismile_tours.wav,1,22,7920.0,-0.39193232679853557,False,0.139
1,1,3,0,f,24,2021-06-21 16:54:49.615460,practice/M_n_cut_antismile_tours.wav,1,23,8904.0,-0.2124659709374833,False,0.139
1,1,3,0,f,24,2021-06-21 16:54:49.615460,practice/M_n_cut_antismile_tours.wav,1,24,10000.0,0.27890288211783215,False,0.139
1,1,4,0,f,24,2021-06-21 16:54:49.615460,practice/M_n_cut_antismile_tours.wav,0,0,100.0,0.32790130543443463,False,0.086
1,1,4,0,f,24,2021-06-21 16:54:49.615460,practice/M_n_cut_antismile_tours.wav,0,1,191.0,0.8071364324035921,False,0.086
1,1,4,0,f,24,2021-06-21 16:54:49.615460,practice/M_n_cut_antismile_tours.wav,0,2,293.0,0.582123610043553,False,0.086
1,1,4,0,f,24,2021-06-21 16:54:49.615460,practice/M_n_cut_antismile_tours.wav,0,3,406.0,1.0140082293210155,False,0.086
1,1,4,0,f,24,2021-06-21 16:54:49.615460,practice/M_n_cut_antismile_tours.wav,0,4,533.0,1.5602554184356976,False,0.086
1,1,4,0,f,24,2021-06-21 16:54:49.615460,practice/M_n_cut_antismile_tours.wav,0,5,673.0,0.023188630015347246,False,0.086
1,1,4,0,f,24,2021-06-21 16:54:49.615460,practice/M_n_cut_antismile_tours.wav,0,6,830.0,-0.6101534486353236,False,0.086
1,1,4,0,f,24,2021-06-21 16:54:49.615460,practice/M_n_cut_antismile_tours.wav,0,7,1004.0,-0.3548441596986841,False,0.086
1,1,4,0,f,24,2021-06-21 16:54:49.615460,practice/M_n_cut_antismile_tours.wav,0,8,1199.0,-0.30599388164314356,False,0.086
1,1,4,0,f,24,2021-06-21 16:54:49.615460,practice/M_n_cut_antismile_tours.wav,0,9,1416.0,0.21693787511408644,False,0.086
1,1,4,0,f,24,2021-06-21 16:54:49.615460,practice/M_n_cut_antismile_tours.wav,0,10,1657.0,-0.2097701057829011,False,0.086
1,1,4,0,f,24,2021-06-21 16:54:49.615460,practice/M_n_cut_antismile_tours.wav,0,11,1926.0,0.4803248463849489,False,0.086
1,1,4,0,f,24,2021-06-21 16:54:49.615460,practice/M_n_cut_antismile_tours.wav,0,12,2226.0,0.05824586400483771,False,0.086
1,1,4,0,f,24,2021-06-21 16:54:49.615460,practice/M_n_cut_antismile_tours.wav,0,13,2560.0,-0.07967691123039847,False,0.086
1,1,4,0,f,24,2021-06-21 16:54:49.615460,practice/M_n_cut_antismile_tours.wav,0,14,2932.0,-0.3977737983665839,False,0.086
1,1,4,0,f,24,2021-06-21 16:54:49.615460,practice/M_n_cut_antismile_tours.wav,0,15,3346.0,-0.0627928749462618,False,0.086
1,1,4,0,f,24,2021-06-21 16:54:49.615460,practice/M_n_cut_antismile_tours.wav,0,16,3808.0,-0.3051876635285592,False,0.086
1,1,4,0,f,24,2021-06-21 16:54:49.615460,practice/M_n_cut_antismile_tours.wav,0,17,4322.0,0.02410972791995148,False,0.086
1,1,4,0,f,24,2021-06-21 16:54:49.615460,practice/M_n_cut_antismile_tours.wav,0,18,4895.0,0.20234496801960317,False,0.086
1,1,4,0,f,24,2021-06-21 16:54:49.615460,practice/M_n_cut_antismile_tours.wav,0,19,5534.0,-0.10243873713564498,False,0.086
1,1,4,0,f,24,2021-06-21 16:54:49.615460,practice/M_n_cut_antismile_tours.wav,0,20,6245.0,-0.37082597171598497,False,0.086
1,1,4,0,f,24,2021-06-21 16:54:49.615460,practice/M_n_cut_antismile_tours.wav,0,21,7037.0,-0.21039849166199884,False,0.086
1,1,4,0,f,24,2021-06-21 16:54:49.615460,practice/M_n_cut_antismile_tours.wav,0,22,7920.0,-0.39193232679853557,False,0.086
1,1,4,0,f,24,2021-06-21 16:54:49.615460,practice/M_n_cut_antismile_tours.wav,0,23,8904.0,-0.2124659709374833,False,0.086
1,1,4,0,f,24,2021-06-21 16:54:49.615460,practice/M_n_cut_antismile_tours.wav,0,24,10000.0,0.27890288211783215,False,0.086
1,1,4,0,f,24,2021-06-21 16:54:49.615460,practice/M_n_cut_smile_controls.wav,1,0,100.0,-0.8413748087013819,True,0.086
1,1,4,0,f,24,2021-06-21 16:54:49.615460,practice/M_n_cut_smile_controls.wav,1,1,191.0,-0.508212207818517,True,0.086
1,1,4,0,f,24,2021-06-21 16:54:49.615460,practice/M_n_cut_smile_controls.wav,1,2,293.0,-0.7064540836890618,True,0.086
1,1,4,0,f,24,2021-06-21 16:54:49.615460,practice/M_n_cut_smile_controls.wav,1,3,406.0,-1.563085776129798,True,0.086
1,1,4,0,f,24,2021-06-21 16:54:49.615460,practice/M_n_cut_smile_controls.wav,1,4,533.0,-1.0042739144132906,True,0.086
1,1,4,0,f,24,2021-06-21 16:54:49.615460,practice/M_n_cut_smile_controls.wav,1,5,673.0,0.5503436455299164,True,0.086
1,1,4,0,f,24,2021-06-21 16:54:49.615460,practice/M_n_cut_smile_controls.wav,1,6,830.0,0.6355236363614536,True,0.086
1,1,4,0,f,24,2021-06-21 16:54:49.615460,practice/M_n_cut_smile_controls.wav,1,7,1004.0,0.18258331583897092,True,0.086
1,1,4,0,f,24,2021-06-21 16:54:49.615460,practice/M_n_cut_smile_controls.wav,1,8,1199.0,1.0775510715714662,True,0.086
1,1,4,0,f,24,2021-06-21 16:54:49.615460,practice/M_n_cut_smile_controls.wav,1,9,1416.0,0.07035631583735258,True,0.086
1,1,4,0,f,24,2021-06-21 16:54:49.615460,practice/M_n_cut_smile_controls.wav,1,10,1657.0,-0.17815117497723656,True,0.086
1,1,4,0,f,24,2021-06-21 16:54:49.615460,practice/M_n_cut_smile_controls.wav,1,11,1926.0,-0.1694125054827026,True,0.086
1,1,4,0,f,24,2021-06-21 16:54:49.615460,practice/M_n_cut_smile_controls.wav,1,12,2226.0,0.16378442502596796,True,0.086
1,1,4,0,f,24,2021-06-21 16:54:49.615460,practice/M_n_cut_smile_controls.wav,1,13,2560.0,0.34787304916463235,True,0.086
1,1,4,0,f,24,2021-06-21 16:54:49.615460,practice/M_n_cut_smile_controls.wav,1,14,2932.0,0.0626149612132311,True,0.086
1,1,4,0,f,24,2021-06-21 16:54:49.615460,practice/M_n_cut_smile_controls.wav,1,15,3346.0,0.2996597360864252,True,0.086
1,1,4,0,f,24,2021-06-21 16:54:49.615460,practice/M_n_cut_smile_controls.wav,1,16,3808.0,0.42937102971314384,True,0.086
1,1,4,0,f,24,2021-06-21 16:54:49.615460,practice/M_n_cut_smile_controls.wav,1,17,4322.0,-0.41737623835229487,True,0.086
1,1,4,0,f,24,2021-06-21 16:54:49.615460,practice/M_n_cut_smile_controls.wav,1,18,4895.0,0.059966459920471,True,0.086
1,1,4,0,f,24,2021-06-21 16:54:49.615460,practice/M_n_cut_smile_controls.wav,1,19,5534.0,0.27708525932290595,True,0.086
1,1,4,0,f,24,2021-06-21 16:54:49.615460,practice/M_n_cut_smile_controls.wav,1,20,6245.0,0.17960724922351168,True,0.086
1,1,4,0,f,24,2021-06-21 16:54:49.615460,practice/M_n_cut_smile_controls.wav,1,21,7037.0,0.1292321690281848,True,0.086
1,1,4,0,f,24,2021-06-21 16:54:49.615460,practice/M_n_cut_smile_controls.wav,1,22,7920.0,0.0646792137345456,True,0.086
1,1,4,0,f,24,2021-06-21 16:54:49.615460,practice/M_n_cut_smile_controls.wav,1,23,8904.0,0.35333251063145654,True,0.086
1,1,4,0,f,24,2021-06-21 16:54:49.615460,practice/M_n_cut_smile_controls.wav,1,24,10000.0,0.5238291016113881,True,0.086
1,1,5,0,f,24,2021-06-21 16:54:49.615460,practice/M_n_cut_practice_a_5.wav,0,0,0.00000000,1.50558091,True,0.281
1,1,5,0,f,24,2021-06-21 16:54:49.615460,practice/M_n_cut_practice_a_5.wav,0,1,104.58767290,3.31575101,True,0.281
1,1,5,0,f,24,2021-06-21 16:54:49.615460,practice/M_n_cut_practice_a_5.wav,0,2,224.80189054,1.73257066,True,0.281
1,1,5,0,f,24,2021-06-21 16:54:49.615460,practice/M_n_cut_practice_a_5.wav,0,3,362.97743001,-0.49413986,True,0.281
1,1,5,0,f,24,2021-06-21 16:54:49.615460,practice/M_n_cut_practice_a_5.wav,0,4,521.79790965,-3.91501794,True,0.281
1,1,5,0,f,24,2021-06-21 16:54:49.615460,practice/M_n_cut_practice_a_5.wav,0,5,704.34790983,-0.48738092,True,0.281
1,1,5,0,f,24,2021-06-21 16:54:49.615460,practice/M_n_cut_practice_a_5.wav,0,6,914.17288101,-2.94613549,True,0.281
1,1,5,0,f,24,2021-06-21 16:54:49.615460,practice/M_n_cut_practice_a_5.wav,0,7,1155.34800284,3.53468356,True,0.281
1,1,5,0,f,24,2021-06-21 16:54:49.615460,practice/M_n_cut_practice_a_5.wav,0,8,1432.55733147,3.31442299,True,0.281
1,1,5,0,f,24,2021-06-21 16:54:49.615460,practice/M_n_cut_practice_a_5.wav,0,9,1751.18477235,3.05331020,True,0.281
1,1,5,0,f,24,2021-06-21 16:54:49.615460,practice/M_n_cut_practice_a_5.wav,0,10,2117.41864548,3.98493858,True,0.281
1,1,5,0,f,24,2021-06-21 16:54:49.615460,practice/M_n_cut_practice_a_5.wav,0,11,2538.37187364,3.39853173,True,0.281
1,1,5,0,f,24,2021-06-21 16:54:49.615460,practice/M_n_cut_practice_a_5.wav,0,12,3022.22012828,2.71520757,True,0.281
1,1,5,0,f,24,2021-06-21 16:54:49.615460,practice/M_n_cut_practice_a_5.wav,0,13,3578.36061576,-4.48551351,True,0.281
1,1,5,0,f,24,2021-06-21 16:54:49.615460,practice/M_n_cut_practice_a_5.wav,0,14,4217.59458808,0.35846784,True,0.281
1,1,5,0,f,24,2021-06-21 16:54:49.615460,practice/M_n_cut_practice_a_5.wav,0,15,4952.33712269,0.45516334,True,0.281
1,1,5,0,f,24,2021-06-21 16:54:49.615460,practice/M_n_cut_practice_a_5.wav,0,16,5796.85824570,1.67033452,True,0.281
1,1,5,0,f,24,2021-06-21 16:54:49.615460,practice/M_n_cut_practice_a_5.wav,0,17,6767.56008152,-0.09417386,True,0.281
1,1,5,0,f,24,2021-06-21 16:54:49.615460,practice/M_n_cut_practice_a_5.wav,0,18,7883.29541175,3.79935137,True,0.281
1,1,5,0,f,24,2021-06-21 16:54:49.615460,practice/M_n_cut_practice_a_5.wav,0,19,9165.73383021,-4.72924923,True,0.281
1,1,5,0,f,24,2021-06-21 16:54:49.615460,practice/M_n_cut_practice_a_5.wav,0,20,10639.78260555,-0.80604113,True,0.281
1,1,5,0,f,24,2021-06-21 16:54:49.615460,practice/M_n_cut_practice_a_5.wav,0,21,12334.07042541,3.41041137,True,0.281
1,1,5,0,f,24,2021-06-21 16:54:49.615460,practice/M_n_cut_practice_a_5.wav,0,22,14281.50341712,-2.70978125,True,0.281
1,1,5,0,f,24,2021-06-21 16:54:49.615460,practice/M_n_cut_practice_a_5.wav,0,23,16519.90424416,0.33582474,True,0.281
1,1,5,0,f,24,2021-06-21 16:54:49.615460,practice/M_n_cut_practice_a_5.wav,0,24,19092.74669051,1.81709484,True,0.281
1,1,5,0,f,24,2021-06-21 16:54:49.615460,practice/M_n_cut_practice_a_5.wav,0,25,22050.00000000,-2.77454024,True,0.281
1,1,5,0,f,24,2021-06-21 16:54:49.615460,practice/M_n_cut_practice_a_6.wav,1,0,0.00000000,-3.03843880,False,0.281
1,1,5,0,f,24,2021-06-21 16:54:49.615460,practice/M_n_cut_practice_a_6.wav,1,1,104.58767290,-1.57809518,False,0.281
1,1,5,0,f,24,2021-06-21 16:54:49.615460,practice/M_n_cut_practice_a_6.wav,1,2,224.80189054,-4.19754191,False,0.281
1,1,5,0,f,24,2021-06-21 16:54:49.615460,practice/M_n_cut_practice_a_6.wav,1,3,362.97743001,0.08804169,False,0.281
1,1,5,0,f,24,2021-06-21 16:54:49.615460,practice/M_n_cut_practice_a_6.wav,1,4,521.79790965,4.99171604,False,0.281
1,1,5,0,f,24,2021-06-21 16:54:49.615460,practice/M_n_cut_practice_a_6.wav,1,5,704.34790983,0.75351596,False,0.281
1,1,5,0,f,24,2021-06-21 16:54:49.615460,practice/M_n_cut_practice_a_6.wav,1,6,914.17288101,-0.06770398,False,0.281
1,1,5,0,f,24,2021-06-21 16:54:49.615460,practice/M_n_cut_practice_a_6.wav,1,7,1155.34800284,-0.26457855,False,0.281
1,1,5,0,f,24,2021-06-21 16:54:49.615460,practice/M_n_cut_practice_a_6.wav,1,8,1432.55733147,2.79224387,False,0.281
1,1,5,0,f,24,2021-06-21 16:54:49.615460,practice/M_n_cut_practice_a_6.wav,1,9,1751.18477235,0.78487746,False,0.281
1,1,5,0,f,24,2021-06-21 16:54:49.615460,practice/M_n_cut_practice_a_6.wav,1,10,2117.41864548,-4.85890651,False,0.281
1,1,5,0,f,24,2021-06-21 16:54:49.615460,practice/M_n_cut_practice_a_6.wav,1,11,2538.37187364,-4.05497950,False,0.281
1,1,5,0,f,24,2021-06-21 16:54:49.615460,practice/M_n_cut_practice_a_6.wav,1,12,3022.22012828,-3.94226035,False,0.281
1,1,5,0,f,24,2021-06-21 16:54:49.615460,practice/M_n_cut_practice_a_6.wav,1,13,3578.36061576,-0.89455059,False,0.281
1,1,5,0,f,24,2021-06-21 16:54:49.615460,practice/M_n_cut_practice_a_6.wav,1,14,4217.59458808,-3.30755130,False,0.281
1,1,5,0,f,24,2021-06-21 16:54:49.615460,practice/M_n_cut_practice_a_6.wav,1,15,4952.33712269,-2.03213146,False,0.281
1,1,5,0,f,24,2021-06-21 16:54:49.615460,practice/M_n_cut_practice_a_6.wav,1,16,5796.85824570,-2.85070547,False,0.281
1,1,5,0,f,24,2021-06-21 16:54:49.615460,practice/M_n_cut_practice_a_6.wav,1,17,6767.56008152,-1.69722435,False,0.281
1,1,5,0,f,24,2021-06-21 16:54:49.615460,practice/M_n_cut_practice_a_6.wav,1,18,7883.29541175,-2.32309382,False,0.281
1,1,5,0,f,24,2021-06-21 16:54:49.615460,practice/M_n_cut_practice_a_6.wav,1,19,9165.73383021,-1.72485973,False,0.281
1,1,5,0,f,24,2021-06-21 16:54:49.615460,practice/M_n_cut_practice_a_6.wav,1,20,10639.78260555,-1.88396790,False,0.281
1,1,5,0,f,24,2021-06-21 16:54:49.615460,practice/M_n_cut_practice_a_6.wav,1,21,12334.07042541,-4.33477650,False,0.281
1,1,5,0,f,24,2021-06-21 16:54:49.615460,practice/M_n_cut_practice_a_6.wav,1,22,14281.50341712,-4.48734066,False,0.281
1,1,5,0,f,24,2021-06-21 16:54:49.615460,practice/M_n_cut_practice_a_6.wav,1,23,16519.90424416,1.64137504,False,0.281
1,1,5,0,f,24,2021-06-21 16:54:49.615460,practice/M_n_cut_practice_a_6.wav,1,24,19092.74669051,-2.37331491,False,0.281
1,1,5,0,f,24,2021-06-21 16:54:49.615460,practice/M_n_cut_practice_a_6.wav,1,25,22050.00000000,-0.61302585,False,0.281
1,1,6,0,f,24,2021-06-21 16:54:49.615460,practice/M_n_cut_antismile_tours.wav,0,0,100.0,0.32790130543443463,False,0.147
1,1,6,0,f,24,2021-06-21 16:54:49.615460,practice/M_n_cut_antismile_tours.wav,0,1,191.0,0.8071364324035921,False,0.147
1,1,6,0,f,24,2021-06-21 16:54:49.615460,practice/M_n_cut_antismile_tours.wav,0,2,293.0,0.582123610043553,False,0.147
1,1,6,0,f,24,2021-06-21 16:54:49.615460,practice/M_n_cut_antismile_tours.wav,0,3,406.0,1.0140082293210155,False,0.147
1,1,6,0,f,24,2021-06-21 16:54:49.615460,practice/M_n_cut_antismile_tours.wav,0,4,533.0,1.5602554184356976,False,0.147
1,1,6,0,f,24,2021-06-21 16:54:49.615460,practice/M_n_cut_antismile_tours.wav,0,5,673.0,0.023188630015347246,False,0.147
1,1,6,0,f,24,2021-06-21 16:54:49.615460,practice/M_n_cut_antismile_tours.wav,0,6,830.0,-0.6101534486353236,False,0.147
1,1,6,0,f,24,2021-06-21 16:54:49.615460,practice/M_n_cut_antismile_tours.wav,0,7,1004.0,-0.3548441596986841,False,0.147
1,1,6,0,f,24,2021-06-21 16:54:49.615460,practice/M_n_cut_antismile_tours.wav,0,8,1199.0,-0.30599388164314356,False,0.147
1,1,6,0,f,24,2021-06-21 16:54:49.615460,practice/M_n_cut_antismile_tours.wav,0,9,1416.0,0.21693787511408644,False,0.147
1,1,6,0,f,24,2021-06-21 16:54:49.615460,practice/M_n_cut_antismile_tours.wav,0,10,1657.0,-0.2097701057829011,False,0.147
1,1,6,0,f,24,2021-06-21 16:54:49.615460,practice/M_n_cut_antismile_tours.wav,0,11,1926.0,0.4803248463849489,False,0.147
1,1,6,0,f,24,2021-06-21 16:54:49.615460,practice/M_n_cut_antismile_tours.wav,0,12,2226.0,0.05824586400483771,False,0.147
1,1,6,0,f,24,2021-06-21 16:54:49.615460,practice/M_n_cut_antismile_tours.wav,0,13,2560.0,-0.07967691123039847,False,0.147
1,1,6,0,f,24,2021-06-21 16:54:49.615460,practice/M_n_cut_antismile_tours.wav,0,14,2932.0,-0.3977737983665839,False,0.147
1,1,6,0,f,24,2021-06-21 16:54:49.615460,practice/M_n_cut_antismile_tours.wav,0,15,3346.0,-0.0627928749462618,False,0.147
1,1,6,0,f,24,2021-06-21 16:54:49.615460,practice/M_n_cut_antismile_tours.wav,0,16,3808.0,-0.3051876635285592,False,0.147
1,1,6,0,f,24,2021-06-21 16:54:49.615460,practice/M_n_cut_antismile_tours.wav,0,17,4322.0,0.02410972791995148,False,0.147
1,1,6,0,f,24,2021-06-21 16:54:49.615460,practice/M_n_cut_antismile_tours.wav,0,18,4895.0,0.20234496801960317,False,0.147
1,1,6,0,f,24,2021-06-21 16:54:49.615460,practice/M_n_cut_antismile_tours.wav,0,19,5534.0,-0.10243873713564498,False,0.147
1,1,6,0,f,24,2021-06-21 16:54:49.615460,practice/M_n_cut_antismile_tours.wav,0,20,6245.0,-0.37082597171598497,False,0.147
1,1,6,0,f,24,2021-06-21 16:54:49.615460,practice/M_n_cut_antismile_tours.wav,0,21,7037.0,-0.21039849166199884,False,0.147
1,1,6,0,f,24,2021-06-21 16:54:49.615460,practice/M_n_cut_antismile_tours.wav,0,22,7920.0,-0.39193232679853557,False,0.147
1,1,6,0,f,24,2021-06-21 16:54:49.615460,practice/M_n_cut_antismile_tours.wav,0,23,8904.0,-0.2124659709374833,False,0.147
1,1,6,0,f,24,2021-06-21 16:54:49.615460,practice/M_n_cut_antismile_tours.wav,0,24,10000.0,0.27890288211783215,False,0.147
1,1,6,0,f,24,2021-06-21 16:54:49.615460,practice/M_n_cut_smile_tours.wav,1,0,100.0,-0.5246420886950953,True,0.147
1,1,6,0,f,24,2021-06-21 16:54:49.615460,practice/M_n_cut_smile_tours.wav,1,1,191.0,-1.2914182918457477,True,0.147
1,1,6,0,f,24,2021-06-21 16:54:49.615460,practice/M_n_cut_smile_tours.wav,1,2,293.0,-0.9313977760696847,True,0.147
1,1,6,0,f,24,2021-06-21 16:54:49.615460,practice/M_n_cut_smile_tours.wav,1,3,406.0,-1.622413166913625,True,0.147
1,1,6,0,f,24,2021-06-21 16:54:49.615460,practice/M_n_cut_smile_tours.wav,1,4,533.0,-2.496408669497116,True,0.147
1,1,6,0,f,24,2021-06-21 16:54:49.615460,practice/M_n_cut_smile_tours.wav,1,5,673.0,-0.03710180802455575,True,0.147
1,1,6,0,f,24,2021-06-21 16:54:49.615460,practice/M_n_cut_smile_tours.wav,1,6,830.0,0.9762455178165179,True,0.147
1,1,6,0,f,24,2021-06-21 16:54:49.615460,practice/M_n_cut_smile_tours.wav,1,7,1004.0,0.5677506555178946,True,0.147
1,1,6,0,f,24,2021-06-21 16:54:49.615460,practice/M_n_cut_smile_tours.wav,1,8,1199.0,0.48959021062902985,True,0.147
1,1,6,0,f,24,2021-06-21 16:54:49.615460,practice/M_n_cut_smile_tours.wav,1,9,1416.0,-0.34710060018253835,True,0.147
1,1,6,0,f,24,2021-06-21 16:54:49.615460,practice/M_n_cut_smile_tours.wav,1,10,1657.0,0.33563216925264183,True,0.147
1,1,6,0,f,24,2021-06-21 16:54:49.615460,practice/M_n_cut_smile_tours.wav,1,11,1926.0,-0.7685197542159183,True,0.147
1,1,6,0,f,24,2021-06-21 16:54:49.615460,practice/M_n_cut_smile_tours.wav,1,12,2226.0,-0.09319338240774021,True,0.147
1,1,6,0,f,24,2021-06-21 16:54:49.615460,practice/M_n_cut_smile_tours.wav,1,13,2560.0,0.12748305796863754,True,0.147
1,1,6,0,f,24,2021-06-21 16:54:49.615460,practice/M_n_cut_smile_tours.wav,1,14,2932.0,0.6364380773865341,True,0.147
1,1,6,0,f,24,2021-06-21 16:54:49.615460,practice/M_n_cut_smile_tours.wav,1,15,3346.0,0.10046859991401898,True,0.147
1,1,6,0,f,24,2021-06-21 16:54:49.615460,practice/M_n_cut_smile_tours.wav,1,16,3808.0,0.4883002616456948,True,0.147
1,1,6,0,f,24,2021-06-21 16:54:49.615460,practice/M_n_cut_smile_tours.wav,1,17,4322.0,-0.03857556467192251,True,0.147
1,1,6,0,f,24,2021-06-21 16:54:49.615460,practice/M_n_cut_smile_tours.wav,1,18,4895.0,-0.32375194883136504,True,0.147
1,1,6,0,f,24,2021-06-21 16:54:49.615460,practice/M_n_cut_smile_tours.wav,1,19,5534.0,0.16390197941703205,True,0.147
1,1,6,0,f,24,2021-06-21 16:54:49.615460,practice/M_n_cut_smile_tours.wav,1,20,6245.0,0.593321554745576,True,0.147
1,1,6,0,f,24,2021-06-21 16:54:49.615460,practice/M_n_cut_smile_tours.wav,1,21,7037.0,0.33663758665919813,True,0.147
1,1,6,0,f,24,2021-06-21 16:54:49.615460,practice/M_n_cut_smile_tours.wav,1,22,7920.0,0.627091722877657,True,0.147
1,1,6,0,f,24,2021-06-21 16:54:49.615460,practice/M_n_cut_smile_tours.wav,1,23,8904.0,0.3399455534999733,True,0.147
1,1,6,0,f,24,2021-06-21 16:54:49.615460,practice/M_n_cut_smile_tours.wav,1,24,10000.0,-0.44624461138853155,True,0.147
1,1,7,1,f,24,2021-06-21 16:54:49.615460,gomot_a.0001.eq.wav,0,0,0.00000000,-4.65473028,False,0.141
1,1,7,1,f,24,2021-06-21 16:54:49.615460,gomot_a.0001.eq.wav,0,1,104.58767290,3.80355849,False,0.141
1,1,7,1,f,24,2021-06-21 16:54:49.615460,gomot_a.0001.eq.wav,0,2,224.80189054,4.16050504,False,0.141
1,1,7,1,f,24,2021-06-21 16:54:49.615460,gomot_a.0001.eq.wav,0,3,362.97743001,-1.91844978,False,0.141
1,1,7,1,f,24,2021-06-21 16:54:49.615460,gomot_a.0001.eq.wav,0,4,521.79790965,-1.23514205,False,0.141
1,1,7,1,f,24,2021-06-21 16:54:49.615460,gomot_a.0001.eq.wav,0,5,704.34790983,2.11940852,False,0.141
1,1,7,1,f,24,2021-06-21 16:54:49.615460,gomot_a.0001.eq.wav,0,6,914.17288101,2.91418424,False,0.141
1,1,7,1,f,24,2021-06-21 16:54:49.615460,gomot_a.0001.eq.wav,0,7,1155.34800284,-1.20773342,False,0.141
1,1,7,1,f,24,2021-06-21 16:54:49.615460,gomot_a.0001.eq.wav,0,8,1432.55733147,1.06651843,False,0.141
1,1,7,1,f,24,2021-06-21 16:54:49.615460,gomot_a.0001.eq.wav,0,9,1751.18477235,-0.57848470,False,0.141
1,1,7,1,f,24,2021-06-21 16:54:49.615460,gomot_a.0001.eq.wav,0,10,2117.41864548,-1.89180591,False,0.141
1,1,7,1,f,24,2021-06-21 16:54:49.615460,gomot_a.0001.eq.wav,0,11,2538.37187364,-4.20125692,False,0.141
1,1,7,1,f,24,2021-06-21 16:54:49.615460,gomot_a.0001.eq.wav,0,12,3022.22012828,1.48871848,False,0.141
1,1,7,1,f,24,2021-06-21 16:54:49.615460,gomot_a.0001.eq.wav,0,13,3578.36061576,4.24744184,False,0.141
1,1,7,1,f,24,2021-06-21 16:54:49.615460,gomot_a.0001.eq.wav,0,14,4217.59458808,-2.23742588,False,0.141
1,1,7,1,f,24,2021-06-21 16:54:49.615460,gomot_a.0001.eq.wav,0,15,4952.33712269,-4.37219107,False,0.141
1,1,7,1,f,24,2021-06-21 16:54:49.615460,gomot_a.0001.eq.wav,0,16,5796.85824570,3.15620855,False,0.141
1,1,7,1,f,24,2021-06-21 16:54:49.615460,gomot_a.0001.eq.wav,0,17,6767.56008152,0.19809307,False,0.141
1,1,7,1,f,24,2021-06-21 16:54:49.615460,gomot_a.0001.eq.wav,0,18,7883.29541175,-0.06710268,False,0.141
1,1,7,1,f,24,2021-06-21 16:54:49.615460,gomot_a.0001.eq.wav,0,19,9165.73383021,-1.72281256,False,0.141
1,1,7,1,f,24,2021-06-21 16:54:49.615460,gomot_a.0001.eq.wav,0,20,10639.78260555,-2.07240958,False,0.141
1,1,7,1,f,24,2021-06-21 16:54:49.615460,gomot_a.0001.eq.wav,0,21,12334.07042541,0.68384609,False,0.141
1,1,7,1,f,24,2021-06-21 16:54:49.615460,gomot_a.0001.eq.wav,0,22,14281.50341712,2.51497863,False,0.141
1,1,7,1,f,24,2021-06-21 16:54:49.615460,gomot_a.0001.eq.wav,0,23,16519.90424416,1.24811279,False,0.141
1,1,7,1,f,24,2021-06-21 16:54:49.615460,gomot_a.0001.eq.wav,0,24,19092.74669051,0.71567634,False,0.141
1,1,7,1,f,24,2021-06-21 16:54:49.615460,gomot_a.0001.eq.wav,0,25,22050.00000000,4.79593341,False,0.141
1,1,7,1,f,24,2021-06-21 16:54:49.615460,gomot_a.0301.eq.wav,1,0,0.00000000,0.96583073,True,0.141
1,1,7,1,f,24,2021-06-21 16:54:49.615460,gomot_a.0301.eq.wav,1,1,104.58767290,2.69343943,True,0.141
1,1,7,1,f,24,2021-06-21 16:54:49.615460,gomot_a.0301.eq.wav,1,2,224.80189054,-4.30470792,True,0.141
1,1,7,1,f,24,2021-06-21 16:54:49.615460,gomot_a.0301.eq.wav,1,3,362.97743001,-0.00889296,True,0.141
1,1,7,1,f,24,2021-06-21 16:54:49.615460,gomot_a.0301.eq.wav,1,4,521.79790965,4.01074178,True,0.141
1,1,7,1,f,24,2021-06-21 16:54:49.615460,gomot_a.0301.eq.wav,1,5,704.34790983,1.20244979,True,0.141
1,1,7,1,f,24,2021-06-21 16:54:49.615460,gomot_a.0301.eq.wav,1,6,914.17288101,3.50446039,True,0.141
1,1,7,1,f,24,2021-06-21 16:54:49.615460,gomot_a.0301.eq.wav,1,7,1155.34800284,2.22785098,True,0.141
1,1,7,1,f,24,2021-06-21 16:54:49.615460,gomot_a.0301.eq.wav,1,8,1432.55733147,2.76790462,True,0.141
1,1,7,1,f,24,2021-06-21 16:54:49.615460,gomot_a.0301.eq.wav,1,9,1751.18477235,1.26938951,True,0.141
1,1,7,1,f,24,2021-06-21 16:54:49.615460,gomot_a.0301.eq.wav,1,10,2117.41864548,-3.49640235,True,0.141
1,1,7,1,f,24,2021-06-21 16:54:49.615460,gomot_a.0301.eq.wav,1,11,2538.37187364,-0.56046784,True,0.141
1,1,7,1,f,24,2021-06-21 16:54:49.615460,gomot_a.0301.eq.wav,1,12,3022.22012828,-0.19183409,True,0.141
1,1,7,1,f,24,2021-06-21 16:54:49.615460,gomot_a.0301.eq.wav,1,13,3578.36061576,-3.85538858,True,0.141
1,1,7,1,f,24,2021-06-21 16:54:49.615460,gomot_a.0301.eq.wav,1,14,4217.59458808,-0.45637615,True,0.141
1,1,7,1,f,24,2021-06-21 16:54:49.615460,gomot_a.0301.eq.wav,1,15,4952.33712269,1.72431511,True,0.141
1,1,7,1,f,24,2021-06-21 16:54:49.615460,gomot_a.0301.eq.wav,1,16,5796.85824570,3.73749505,True,0.141
1,1,7,1,f,24,2021-06-21 16:54:49.615460,gomot_a.0301.eq.wav,1,17,6767.56008152,2.10247374,True,0.141
1,1,7,1,f,24,2021-06-21 16:54:49.615460,gomot_a.0301.eq.wav,1,18,7883.29541175,-0.90133615,True,0.141
1,1,7,1,f,24,2021-06-21 16:54:49.615460,gomot_a.0301.eq.wav,1,19,9165.73383021,-2.88252763,True,0.141
1,1,7,1,f,24,2021-06-21 16:54:49.615460,gomot_a.0301.eq.wav,1,20,10639.78260555,-3.38943465,True,0.141
1,1,7,1,f,24,2021-06-21 16:54:49.615460,gomot_a.0301.eq.wav,1,21,12334.07042541,2.61842469,True,0.141
1,1,7,1,f,24,2021-06-21 16:54:49.615460,gomot_a.0301.eq.wav,1,22,14281.50341712,-1.08735420,True,0.141
1,1,7,1,f,24,2021-06-21 16:54:49.615460,gomot_a.0301.eq.wav,1,23,16519.90424416,0.52029706,True,0.141
1,1,7,1,f,24,2021-06-21 16:54:49.615460,gomot_a.0301.eq.wav,1,24,19092.74669051,2.53614434,True,0.141
1,1,7,1,f,24,2021-06-21 16:54:49.615460,gomot_a.0301.eq.wav,1,25,22050.00000000,-0.41803194,True,0.141
1,1,8,1,f,24,2021-06-21 16:54:49.615460,gomot_a.0002.eq.wav,0,0,0.00000000,4.99533491,True,0.308
1,1,8,1,f,24,2021-06-21 16:54:49.615460,gomot_a.0002.eq.wav,0,1,104.58767290,2.48051103,True,0.308
1,1,8,1,f,24,2021-06-21 16:54:49.615460,gomot_a.0002.eq.wav,0,2,224.80189054,-0.67893756,True,0.308
1,1,8,1,f,24,2021-06-21 16:54:49.615460,gomot_a.0002.eq.wav,0,3,362.97743001,-0.94640202,True,0.308
1,1,8,1,f,24,2021-06-21 16:54:49.615460,gomot_a.0002.eq.wav,0,4,521.79790965,-2.91650724,True,0.308
1,1,8,1,f,24,2021-06-21 16:54:49.615460,gomot_a.0002.eq.wav,0,5,704.34790983,-2.74890495,True,0.308
1,1,8,1,f,24,2021-06-21 16:54:49.615460,gomot_a.0002.eq.wav,0,6,914.17288101,1.59610554,True,0.308
1,1,8,1,f,24,2021-06-21 16:54:49.615460,gomot_a.0002.eq.wav,0,7,1155.34800284,-3.31735326,True,0.308
1,1,8,1,f,24,2021-06-21 16:54:49.615460,gomot_a.0002.eq.wav,0,8,1432.55733147,4.77536706,True,0.308
1,1,8,1,f,24,2021-06-21 16:54:49.615460,gomot_a.0002.eq.wav,0,9,1751.18477235,0.45933659,True,0.308
1,1,8,1,f,24,2021-06-21 16:54:49.615460,gomot_a.0002.eq.wav,0,10,2117.41864548,-0.63464625,True,0.308
1,1,8,1,f,24,2021-06-21 16:54:49.615460,gomot_a.0002.eq.wav,0,11,2538.37187364,-1.43755889,True,0.308
1,1,8,1,f,24,2021-06-21 16:54:49.615460,gomot_a.0002.eq.wav,0,12,3022.22012828,1.13251096,True,0.308
1,1,8,1,f,24,2021-06-21 16:54:49.615460,gomot_a.0002.eq.wav,0,13,3578.36061576,0.19141899,True,0.308
1,1,8,1,f,24,2021-06-21 16:54:49.615460,gomot_a.0002.eq.wav,0,14,4217.59458808,3.26018593,True,0.308
1,1,8,1,f,24,2021-06-21 16:54:49.615460,gomot_a.0002.eq.wav,0,15,4952.33712269,-1.93208808,True,0.308
1,1,8,1,f,24,2021-06-21 16:54:49.615460,gomot_a.0002.eq.wav,0,16,5796.85824570,4.20251800,True,0.308
1,1,8,1,f,24,2021-06-21 16:54:49.615460,gomot_a.0002.eq.wav,0,17,6767.56008152,-4.35207866,True,0.308
1,1,8,1,f,24,2021-06-21 16:54:49.615460,gomot_a.0002.eq.wav,0,18,7883.29541175,1.45116162,True,0.308
1,1,8,1,f,24,2021-06-21 16:54:49.615460,gomot_a.0002.eq.wav,0,19,9165.73383021,-3.43417225,True,0.308
1,1,8,1,f,24,2021-06-21 16:54:49.615460,gomot_a.0002.eq.wav,0,20,10639.78260555,-1.62895151,True,0.308
1,1,8,1,f,24,2021-06-21 16:54:49.615460,gomot_a.0002.eq.wav,0,21,12334.07042541,0.55724529,True,0.308
1,1,8,1,f,24,2021-06-21 16:54:49.615460,gomot_a.0002.eq.wav,0,22,14281.50341712,1.20930709,True,0.308
1,1,8,1,f,24,2021-06-21 16:54:49.615460,gomot_a.0002.eq.wav,0,23,16519.90424416,3.27031329,True,0.308
1,1,8,1,f,24,2021-06-21 16:54:49.615460,gomot_a.0002.eq.wav,0,24,19092.74669051,-2.46557002,True,0.308
1,1,8,1,f,24,2021-06-21 16:54:49.615460,gomot_a.0002.eq.wav,0,25,22050.00000000,-0.12848688,True,0.308
1,1,8,1,f,24,2021-06-21 16:54:49.615460,gomot_a.0302.eq.wav,1,0,0.00000000,-1.23605911,False,0.308
1,1,8,1,f,24,2021-06-21 16:54:49.615460,gomot_a.0302.eq.wav,1,1,104.58767290,-2.93825881,False,0.308
1,1,8,1,f,24,2021-06-21 16:54:49.615460,gomot_a.0302.eq.wav,1,2,224.80189054,-0.96169407,False,0.308
1,1,8,1,f,24,2021-06-21 16:54:49.615460,gomot_a.0302.eq.wav,1,3,362.97743001,-4.19305878,False,0.308
1,1,8,1,f,24,2021-06-21 16:54:49.615460,gomot_a.0302.eq.wav,1,4,521.79790965,0.26866239,False,0.308
1,1,8,1,f,24,2021-06-21 16:54:49.615460,gomot_a.0302.eq.wav,1,5,704.34790983,-3.11883699,False,0.308
1,1,8,1,f,24,2021-06-21 16:54:49.615460,gomot_a.0302.eq.wav,1,6,914.17288101,2.53935895,False,0.308
1,1,8,1,f,24,2021-06-21 16:54:49.615460,gomot_a.0302.eq.wav,1,7,1155.34800284,0.42058095,False,0.308
1,1,8,1,f,24,2021-06-21 16:54:49.615460,gomot_a.0302.eq.wav,1,8,1432.55733147,-1.47242616,False,0.308
1,1,8,1,f,24,2021-06-21 16:54:49.615460,gomot_a.0302.eq.wav,1,9,1751.18477235,2.91448416,False,0.308
1,1,8,1,f,24,2021-06-21 16:54:49.615460,gomot_a.0302.eq.wav,1,10,2117.41864548,4.15809611,False,0.308
1,1,8,1,f,24,2021-06-21 16:54:49.615460,gomot_a.0302.eq.wav,1,11,2538.37187364,-3.11444738,False,0.308
1,1,8,1,f,24,2021-06-21 16:54:49.615460,gomot_a.0302.eq.wav,1,12,3022.22012828,0.71056142,False,0.308
1,1,8,1,f,24,2021-06-21 16:54:49.615460,gomot_a.0302.eq.wav,1,13,3578.36061576,2.05944775,False,0.308
1,1,8,1,f,24,2021-06-21 16:54:49.615460,gomot_a.0302.eq.wav,1,14,4217.59458808,-4.50630076,False,0.308
1,1,8,1,f,24,2021-06-21 16:54:49.615460,gomot_a.0302.eq.wav,1,15,4952.33712269,-1.44558202,False,0.308
1,1,8,1,f,24,2021-06-21 16:54:49.615460,gomot_a.0302.eq.wav,1,16,5796.85824570,1.26008104,False,0.308
1,1,8,1,f,24,2021-06-21 16:54:49.615460,gomot_a.0302.eq.wav,1,17,6767.56008152,1.21132130,False,0.308
1,1,8,1,f,24,2021-06-21 16:54:49.615460,gomot_a.0302.eq.wav,1,18,7883.29541175,-1.09681834,False,0.308
1,1,8,1,f,24,2021-06-21 16:54:49.615460,gomot_a.0302.eq.wav,1,19,9165.73383021,-0.59353833,False,0.308
1,1,8,1,f,24,2021-06-21 16:54:49.615460,gomot_a.0302.eq.wav,1,20,10639.78260555,4.84754954,False,0.308
1,1,8,1,f,24,2021-06-21 16:54:49.615460,gomot_a.0302.eq.wav,1,21,12334.07042541,-2.86034999,False,0.308
1,1,8,1,f,24,2021-06-21 16:54:49.615460,gomot_a.0302.eq.wav,1,22,14281.50341712,4.81249461,False,0.308
1,1,8,1,f,24,2021-06-21 16:54:49.615460,gomot_a.0302.eq.wav,1,23,16519.90424416,1.80158242,False,0.308
1,1,8,1,f,24,2021-06-21 16:54:49.615460,gomot_a.0302.eq.wav,1,24,19092.74669051,-4.30959085,False,0.308
1,1,8,1,f,24,2021-06-21 16:54:49.615460,gomot_a.0302.eq.wav,1,25,22050.00000000,4.66633006,False,0.308
1,1,9,1,f,24,2021-06-21 16:54:49.615460,gomot_a.0003.eq.wav,0,0,0.00000000,2.98720375,False,0.231
1,1,9,1,f,24,2021-06-21 16:54:49.615460,gomot_a.0003.eq.wav,0,1,104.58767290,4.17012362,False,0.231
1,1,9,1,f,24,2021-06-21 16:54:49.615460,gomot_a.0003.eq.wav,0,2,224.80189054,-1.97180604,False,0.231
1,1,9,1,f,24,2021-06-21 16:54:49.615460,gomot_a.0003.eq.wav,0,3,362.97743001,-4.28115004,False,0.231
1,1,9,1,f,24,2021-06-21 16:54:49.615460,gomot_a.0003.eq.wav,0,4,521.79790965,0.97548096,False,0.231
1,1,9,1,f,24,2021-06-21 16:54:49.615460,gomot_a.0003.eq.wav,0,5,704.34790983,-0.72919709,False,0.231
1,1,9,1,f,24,2021-06-21 16:54:49.615460,gomot_a.0003.eq.wav,0,6,914.17288101,-0.82374196,False,0.231
1,1,9,1,f,24,2021-06-21 16:54:49.615460,gomot_a.0003.eq.wav,0,7,1155.34800284,0.25839582,False,0.231
1,1,9,1,f,24,2021-06-21 16:54:49.615460,gomot_a.0003.eq.wav,0,8,1432.55733147,-1.84801817,False,0.231
1,1,9,1,f,24,2021-06-21 16:54:49.615460,gomot_a.0003.eq.wav,0,9,1751.18477235,-0.22009132,False,0.231
1,1,9,1,f,24,2021-06-21 16:54:49.615460,gomot_a.0003.eq.wav,0,10,2117.41864548,-2.12908878,False,0.231
1,1,9,1,f,24,2021-06-21 16:54:49.615460,gomot_a.0003.eq.wav,0,11,2538.37187364,1.12532798,False,0.231
1,1,9,1,f,24,2021-06-21 16:54:49.615460,gomot_a.0003.eq.wav,0,12,3022.22012828,-0.14817055,False,0.231
1,1,9,1,f,24,2021-06-21 16:54:49.615460,gomot_a.0003.eq.wav,0,13,3578.36061576,-0.70429606,False,0.231
1,1,9,1,f,24,2021-06-21 16:54:49.615460,gomot_a.0003.eq.wav,0,14,4217.59458808,1.40276192,False,0.231
1,1,9,1,f,24,2021-06-21 16:54:49.615460,gomot_a.0003.eq.wav,0,15,4952.33712269,-0.39553689,False,0.231
1,1,9,1,f,24,2021-06-21 16:54:49.615460,gomot_a.0003.eq.wav,0,16,5796.85824570,-1.40415132,False,0.231
1,1,9,1,f,24,2021-06-21 16:54:49.615460,gomot_a.0003.eq.wav,0,17,6767.56008152,-0.23938728,False,0.231
1,1,9,1,f,24,2021-06-21 16:54:49.615460,gomot_a.0003.eq.wav,0,18,7883.29541175,-2.65916865,False,0.231
1,1,9,1,f,24,2021-06-21 16:54:49.615460,gomot_a.0003.eq.wav,0,19,9165.73383021,-1.44677948,False,0.231
1,1,9,1,f,24,2021-06-21 16:54:49.615460,gomot_a.0003.eq.wav,0,20,10639.78260555,1.54221546,False,0.231
1,1,9,1,f,24,2021-06-21 16:54:49.615460,gomot_a.0003.eq.wav,0,21,12334.07042541,-2.95405369,False,0.231
1,1,9,1,f,24,2021-06-21 16:54:49.615460,gomot_a.0003.eq.wav,0,22,14281.50341712,-1.92099263,False,0.231
1,1,9,1,f,24,2021-06-21 16:54:49.615460,gomot_a.0003.eq.wav,0,23,16519.90424416,1.17350834,False,0.231
1,1,9,1,f,24,2021-06-21 16:54:49.615460,gomot_a.0003.eq.wav,0,24,19092.74669051,2.78284103,False,0.231
1,1,9,1,f,24,2021-06-21 16:54:49.615460,gomot_a.0003.eq.wav,0,25,22050.00000000,3.66063521,False,0.231
1,1,9,1,f,24,2021-06-21 16:54:49.615460,gomot_a.0303.eq.wav,1,0,0.00000000,0.93111396,True,0.231
1,1,9,1,f,24,2021-06-21 16:54:49.615460,gomot_a.0303.eq.wav,1,1,104.58767290,2.55861111,True,0.231
1,1,9,1,f,24,2021-06-21 16:54:49.615460,gomot_a.0303.eq.wav,1,2,224.80189054,1.87955684,True,0.231
1,1,9,1,f,24,2021-06-21 16:54:49.615460,gomot_a.0303.eq.wav,1,3,362.97743001,-0.24744685,True,0.231
1,1,9,1,f,24,2021-06-21 16:54:49.615460,gomot_a.0303.eq.wav,1,4,521.79790965,-1.74388635,True,0.231
1,1,9,1,f,24,2021-06-21 16:54:49.615460,gomot_a.0303.eq.wav,1,5,704.34790983,-1.59156930,True,0.231
1,1,9,1,f,24,2021-06-21 16:54:49.615460,gomot_a.0303.eq.wav,1,6,914.17288101,-1.12359533,True,0.231
1,1,9,1,f,24,2021-06-21 16:54:49.615460,gomot_a.0303.eq.wav,1,7,1155.34800284,2.57843709,True,0.231
1,1,9,1,f,24,2021-06-21 16:54:49.615460,gomot_a.0303.eq.wav,1,8,1432.55733147,1.04352426,True,0.231
1,1,9,1,f,24,2021-06-21 16:54:49.615460,gomot_a.0303.eq.wav,1,9,1751.18477235,-2.01377569,True,0.231
1,1,9,1,f,24,2021-06-21 16:54:49.615460,gomot_a.0303.eq.wav,1,10,2117.41864548,-3.44322645,True,0.231
1,1,9,1,f,24,2021-06-21 16:54:49.615460,gomot_a.0303.eq.wav,1,11,2538.37187364,-4.46825993,True,0.231
1,1,9,1,f,24,2021-06-21 16:54:49.615460,gomot_a.0303.eq.wav,1,12,3022.22012828,-0.29980504,True,0.231
1,1,9,1,f,24,2021-06-21 16:54:49.615460,gomot_a.0303.eq.wav,1,13,3578.36061576,-3.09213377,True,0.231
1,1,9,1,f,24,2021-06-21 16:54:49.615460,gomot_a.0303.eq.wav,1,14,4217.59458808,0.24489267,True,0.231
1,1,9,1,f,24,2021-06-21 16:54:49.615460,gomot_a.0303.eq.wav,1,15,4952.33712269,0.85661728,True,0.231
1,1,9,1,f,24,2021-06-21 16:54:49.615460,gomot_a.0303.eq.wav,1,16,5796.85824570,0.17263834,True,0.231
1,1,9,1,f,24,2021-06-21 16:54:49.615460,gomot_a.0303.eq.wav,1,17,6767.56008152,0.96920836,True,0.231
1,1,9,1,f,24,2021-06-21 16:54:49.615460,gomot_a.0303.eq.wav,1,18,7883.29541175,-1.32916513,True,0.231
1,1,9,1,f,24,2021-06-21 16:54:49.615460,gomot_a.0303.eq.wav,1,19,9165.73383021,-2.13960776,True,0.231
1,1,9,1,f,24,2021-06-21 16:54:49.615460,gomot_a.0303.eq.wav,1,20,10639.78260555,-1.87536821,True,0.231
1,1,9,1,f,24,2021-06-21 16:54:49.615460,gomot_a.0303.eq.wav,1,21,12334.07042541,-4.11291332,True,0.231
1,1,9,1,f,24,2021-06-21 16:54:49.615460,gomot_a.0303.eq.wav,1,22,14281.50341712,-3.62629313,True,0.231
1,1,9,1,f,24,2021-06-21 16:54:49.615460,gomot_a.0303.eq.wav,1,23,16519.90424416,-2.22673077,True,0.231
1,1,9,1,f,24,2021-06-21 16:54:49.615460,gomot_a.0303.eq.wav,1,24,19092.74669051,1.56485347,True,0.231
1,1,9,1,f,24,2021-06-21 16:54:49.615460,gomot_a.0303.eq.wav,1,25,22050.00000000,-4.13120268,True,0.231
1,1,10,1,f,24,2021-06-21 16:54:49.615460,gomot_a.0004.eq.wav,0,0,0.00000000,-0.57484380,True,0.371
1,1,10,1,f,24,2021-06-21 16:54:49.615460,gomot_a.0004.eq.wav,0,1,104.58767290,-2.96002528,True,0.371
1,1,10,1,f,24,2021-06-21 16:54:49.615460,gomot_a.0004.eq.wav,0,2,224.80189054,-1.22485918,True,0.371
1,1,10,1,f,24,2021-06-21 16:54:49.615460,gomot_a.0004.eq.wav,0,3,362.97743001,3.43831494,True,0.371
1,1,10,1,f,24,2021-06-21 16:54:49.615460,gomot_a.0004.eq.wav,0,4,521.79790965,2.64739355,True,0.371
1,1,10,1,f,24,2021-06-21 16:54:49.615460,gomot_a.0004.eq.wav,0,5,704.34790983,4.90775237,True,0.371
1,1,10,1,f,24,2021-06-21 16:54:49.615460,gomot_a.0004.eq.wav,0,6,914.17288101,4.86558104,True,0.371
1,1,10,1,f,24,2021-06-21 16:54:49.615460,gomot_a.0004.eq.wav,0,7,1155.34800284,1.17500036,True,0.371
1,1,10,1,f,24,2021-06-21 16:54:49.615460,gomot_a.0004.eq.wav,0,8,1432.55733147,3.54839321,True,0.371
1,1,10,1,f,24,2021-06-21 16:54:49.615460,gomot_a.0004.eq.wav,0,9,1751.18477235,1.20006290,True,0.371
1,1,10,1,f,24,2021-06-21 16:54:49.615460,gomot_a.0004.eq.wav,0,10,2117.41864548,0.81469502,True,0.371
1,1,10,1,f,24,2021-06-21 16:54:49.615460,gomot_a.0004.eq.wav,0,11,2538.37187364,3.59822639,True,0.371
1,1,10,1,f,24,2021-06-21 16:54:49.615460,gomot_a.0004.eq.wav,0,12,3022.22012828,-0.93349100,True,0.371
1,1,10,1,f,24,2021-06-21 16:54:49.615460,gomot_a.0004.eq.wav,0,13,3578.36061576,-1.76213125,True,0.371
1,1,10,1,f,24,2021-06-21 16:54:49.615460,gomot_a.0004.eq.wav,0,14,4217.59458808,-2.01021468,True,0.371
1,1,10,1,f,24,2021-06-21 16:54:49.615460,gomot_a.0004.eq.wav,0,15,4952.33712269,4.46738666,True,0.371
1,1,10,1,f,24,2021-06-21 16:54:49.615460,gomot_a.0004.eq.wav,0,16,5796.85824570,0.96004637,True,0.371
1,1,10,1,f,24,2021-06-21 16:54:49.615460,gomot_a.0004.eq.wav,0,17,6767.56008152,2.94241970,True,0.371
1,1,10,1,f,24,2021-06-21 16:54:49.615460,gomot_a.0004.eq.wav,0,18,7883.29541175,-0.27548220,True,0.371
1,1,10,1,f,24,2021-06-21 16:54:49.615460,gomot_a.0004.eq.wav,0,19,9165.73383021,2.62184062,True,0.371
1,1,10,1,f,24,2021-06-21 16:54:49.615460,gomot_a.0004.eq.wav,0,20,10639.78260555,2.76285989,True,0.371
1,1,10,1,f,24,2021-06-21 16:54:49.615460,gomot_a.0004.eq.wav,0,21,12334.07042541,-2.24132604,True,0.371
1,1,10,1,f,24,2021-06-21 16:54:49.615460,gomot_a.0004.eq.wav,0,22,14281.50341712,1.50605849,True,0.371
1,1,10,1,f,24,2021-06-21 16:54:49.615460,gomot_a.0004.eq.wav,0,23,16519.90424416,4.68747307,True,0.371
1,1,10,1,f,24,2021-06-21 16:54:49.615460,gomot_a.0004.eq.wav,0,24,19092.74669051,0.77742343,True,0.371
1,1,10,1,f,24,2021-06-21 16:54:49.615460,gomot_a.0004.eq.wav,0,25,22050.00000000,3.75289688,True,0.371
1,1,10,1,f,24,2021-06-21 16:54:49.615460,gomot_a.0304.eq.wav,1,0,0.00000000,3.92568853,False,0.371
1,1,10,1,f,24,2021-06-21 16:54:49.615460,gomot_a.0304.eq.wav,1,1,104.58767290,2.85924721,False,0.371
1,1,10,1,f,24,2021-06-21 16:54:49.615460,gomot_a.0304.eq.wav,1,2,224.80189054,4.37039387,False,0.371
1,1,10,1,f,24,2021-06-21 16:54:49.615460,gomot_a.0304.eq.wav,1,3,362.97743001,4.83757818,False,0.371
1,1,10,1,f,24,2021-06-21 16:54:49.615460,gomot_a.0304.eq.wav,1,4,521.79790965,-2.39260724,False,0.371
1,1,10,1,f,24,2021-06-21 16:54:49.615460,gomot_a.0304.eq.wav,1,5,704.34790983,-1.11453166,False,0.371
1,1,10,1,f,24,2021-06-21 16:54:49.615460,gomot_a.0304.eq.wav,1,6,914.17288101,-2.25842504,False,0.371
1,1,10,1,f,24,2021-06-21 16:54:49.615460,gomot_a.0304.eq.wav,1,7,1155.34800284,2.72933283,False,0.371
1,1,10,1,f,24,2021-06-21 16:54:49.615460,gomot_a.0304.eq.wav,1,8,1432.55733147,1.29147555,False,0.371
1,1,10,1,f,24,2021-06-21 16:54:49.615460,gomot_a.0304.eq.wav,1,9,1751.18477235,-4.96646764,False,0.371
1,1,10,1,f,24,2021-06-21 16:54:49.615460,gomot_a.0304.eq.wav,1,10,2117.41864548,-2.98746490,False,0.371
1,1,10,1,f,24,2021-06-21 16:54:49.615460,gomot_a.0304.eq.wav,1,11,2538.37187364,-1.04450026,False,0.371
1,1,10,1,f,24,2021-06-21 16:54:49.615460,gomot_a.0304.eq.wav,1,12,3022.22012828,-0.60709555,False,0.371
1,1,10,1,f,24,2021-06-21 16:54:49.615460,gomot_a.0304.eq.wav,1,13,3578.36061576,-2.72947535,False,0.371
1,1,10,1,f,24,2021-06-21 16:54:49.615460,gomot_a.0304.eq.wav,1,14,4217.59458808,2.74871079,False,0.371
1,1,10,1,f,24,2021-06-21 16:54:49.615460,gomot_a.0304.eq.wav,1,15,4952.33712269,-2.35020088,False,0.371
1,1,10,1,f,24,2021-06-21 16:54:49.615460,gomot_a.0304.eq.wav,1,16,5796.85824570,-2.72277213,False,0.371
1,1,10,1,f,24,2021-06-21 16:54:49.615460,gomot_a.0304.eq.wav,1,17,6767.56008152,0.14630337,False,0.371
1,1,10,1,f,24,2021-06-21 16:54:49.615460,gomot_a.0304.eq.wav,1,18,7883.29541175,-1.30436678,False,0.371
1,1,10,1,f,24,2021-06-21 16:54:49.615460,gomot_a.0304.eq.wav,1,19,9165.73383021,-4.72931971,False,0.371
1,1,10,1,f,24,2021-06-21 16:54:49.615460,gomot_a.0304.eq.wav,1,20,10639.78260555,-1.49336634,False,0.371
1,1,10,1,f,24,2021-06-21 16:54:49.615460,gomot_a.0304.eq.wav,1,21,12334.07042541,-0.74009304,False,0.371
1,1,10,1,f,24,2021-06-21 16:54:49.615460,gomot_a.0304.eq.wav,1,22,14281.50341712,3.38314790,False,0.371
1,1,10,1,f,24,2021-06-21 16:54:49.615460,gomot_a.0304.eq.wav,1,23,16519.90424416,-0.59582134,False,0.371
1,1,10,1,f,24,2021-06-21 16:54:49.615460,gomot_a.0304.eq.wav,1,24,19092.74669051,3.26557494,False,0.371
1,1,10,1,f,24,2021-06-21 16:54:49.615460,gomot_a.0304.eq.wav,1,25,22050.00000000,3.10449756,False,0.371
1,1,11,1,f,24,2021-06-21 16:54:49.615460,gomot_a.0005.eq.wav,0,0,0.00000000,-0.66222748,False,0.482
1,1,11,1,f,24,2021-06-21 16:54:49.615460,gomot_a.0005.eq.wav,0,1,104.58767290,-4.70839739,False,0.482
1,1,11,1,f,24,2021-06-21 16:54:49.615460,gomot_a.0005.eq.wav,0,2,224.80189054,3.17347542,False,0.482
1,1,11,1,f,24,2021-06-21 16:54:49.615460,gomot_a.0005.eq.wav,0,3,362.97743001,0.30275715,False,0.482
1,1,11,1,f,24,2021-06-21 16:54:49.615460,gomot_a.0005.eq.wav,0,4,521.79790965,2.13630027,False,0.482
1,1,11,1,f,24,2021-06-21 16:54:49.615460,gomot_a.0005.eq.wav,0,5,704.34790983,-2.33487401,False,0.482
1,1,11,1,f,24,2021-06-21 16:54:49.615460,gomot_a.0005.eq.wav,0,6,914.17288101,4.30535578,False,0.482
1,1,11,1,f,24,2021-06-21 16:54:49.615460,gomot_a.0005.eq.wav,0,7,1155.34800284,0.16345525,False,0.482
1,1,11,1,f,24,2021-06-21 16:54:49.615460,gomot_a.0005.eq.wav,0,8,1432.55733147,-0.13468381,False,0.482
1,1,11,1,f,24,2021-06-21 16:54:49.615460,gomot_a.0005.eq.wav,0,9,1751.18477235,3.48221537,False,0.482
1,1,11,1,f,24,2021-06-21 16:54:49.615460,gomot_a.0005.eq.wav,0,10,2117.41864548,-4.58285382,False,0.482
1,1,11,1,f,24,2021-06-21 16:54:49.615460,gomot_a.0005.eq.wav,0,11,2538.37187364,2.01806528,False,0.482
1,1,11,1,f,24,2021-06-21 16:54:49.615460,gomot_a.0005.eq.wav,0,12,3022.22012828,2.13231130,False,0.482
1,1,11,1,f,24,2021-06-21 16:54:49.615460,gomot_a.0005.eq.wav,0,13,3578.36061576,0.51416392,False,0.482
1,1,11,1,f,24,2021-06-21 16:54:49.615460,gomot_a.0005.eq.wav,0,14,4217.59458808,-4.85667072,False,0.482
1,1,11,1,f,24,2021-06-21 16:54:49.615460,gomot_a.0005.eq.wav,0,15,4952.33712269,-2.12089179,False,0.482
1,1,11,1,f,24,2021-06-21 16:54:49.615460,gomot_a.0005.eq.wav,0,16,5796.85824570,2.45540792,False,0.482
1,1,11,1,f,24,2021-06-21 16:54:49.615460,gomot_a.0005.eq.wav,0,17,6767.56008152,-2.14302878,False,0.482
1,1,11,1,f,24,2021-06-21 16:54:49.615460,gomot_a.0005.eq.wav,0,18,7883.29541175,-0.26113301,False,0.482
1,1,11,1,f,24,2021-06-21 16:54:49.615460,gomot_a.0005.eq.wav,0,19,9165.73383021,2.13988255,False,0.482
1,1,11,1,f,24,2021-06-21 16:54:49.615460,gomot_a.0005.eq.wav,0,20,10639.78260555,-4.61450483,False,0.482
1,1,11,1,f,24,2021-06-21 16:54:49.615460,gomot_a.0005.eq.wav,0,21,12334.07042541,2.12956697,False,0.482
1,1,11,1,f,24,2021-06-21 16:54:49.615460,gomot_a.0005.eq.wav,0,22,14281.50341712,4.74396760,False,0.482
1,1,11,1,f,24,2021-06-21 16:54:49.615460,gomot_a.0005.eq.wav,0,23,16519.90424416,-2.91560068,False,0.482
1,1,11,1,f,24,2021-06-21 16:54:49.615460,gomot_a.0005.eq.wav,0,24,19092.74669051,0.04914431,False,0.482
1,1,11,1,f,24,2021-06-21 16:54:49.615460,gomot_a.0005.eq.wav,0,25,22050.00000000,-0.26793837,False,0.482
1,1,11,1,f,24,2021-06-21 16:54:49.615460,gomot_a.0305.eq.wav,1,0,0.00000000,-2.91833203,True,0.482
1,1,11,1,f,24,2021-06-21 16:54:49.615460,gomot_a.0305.eq.wav,1,1,104.58767290,-1.46589789,True,0.482
1,1,11,1,f,24,2021-06-21 16:54:49.615460,gomot_a.0305.eq.wav,1,2,224.80189054,-1.39869383,True,0.482
1,1,11,1,f,24,2021-06-21 16:54:49.615460,gomot_a.0305.eq.wav,1,3,362.97743001,-2.42054946,True,0.482
1,1,11,1,f,24,2021-06-21 16:54:49.615460,gomot_a.0305.eq.wav,1,4,521.79790965,-4.65668800,True,0.482
1,1,11,1,f,24,2021-06-21 16:54:49.615460,gomot_a.0305.eq.wav,1,5,704.34790983,4.92975486,True,0.482
1,1,11,1,f,24,2021-06-21 16:54:49.615460,gomot_a.0305.eq.wav,1,6,914.17288101,-1.38344554,True,0.482
1,1,11,1,f,24,2021-06-21 16:54:49.615460,gomot_a.0305.eq.wav,1,7,1155.34800284,-3.56745009,True,0.482
1,1,11,1,f,24,2021-06-21 16:54:49.615460,gomot_a.0305.eq.wav,1,8,1432.55733147,1.03152332,True,0.482
1,1,11,1,f,24,2021-06-21 16:54:49.615460,gomot_a.0305.eq.wav,1,9,1751.18477235,-3.52333334,True,0.482
1,1,11,1,f,24,2021-06-21 16:54:49.615460,gomot_a.0305.eq.wav,1,10,2117.41864548,2.10322149,True,0.482
1,1,11,1,f,24,2021-06-21 16:54:49.615460,gomot_a.0305.eq.wav,1,11,2538.37187364,1.18432214,True,0.482
1,1,11,1,f,24,2021-06-21 16:54:49.615460,gomot_a.0305.eq.wav,1,12,3022.22012828,2.49982656,True,0.482
1,1,11,1,f,24,2021-06-21 16:54:49.615460,gomot_a.0305.eq.wav,1,13,3578.36061576,1.46236908,True,0.482
1,1,11,1,f,24,2021-06-21 16:54:49.615460,gomot_a.0305.eq.wav,1,14,4217.59458808,3.83366344,True,0.482
1,1,11,1,f,24,2021-06-21 16:54:49.615460,gomot_a.0305.eq.wav,1,15,4952.33712269,4.04510185,True,0.482
1,1,11,1,f,24,2021-06-21 16:54:49.615460,gomot_a.0305.eq.wav,1,16,5796.85824570,-4.50525760,True,0.482
1,1,11,1,f,24,2021-06-21 16:54:49.615460,gomot_a.0305.eq.wav,1,17,6767.56008152,-2.89611050,True,0.482
1,1,11,1,f,24,2021-06-21 16:54:49.615460,gomot_a.0305.eq.wav,1,18,7883.29541175,2.06593778,True,0.482
1,1,11,1,f,24,2021-06-21 16:54:49.615460,gomot_a.0305.eq.wav,1,19,9165.73383021,0.10519025,True,0.482
1,1,11,1,f,24,2021-06-21 16:54:49.615460,gomot_a.0305.eq.wav,1,20,10639.78260555,3.18567933,True,0.482
1,1,11,1,f,24,2021-06-21 16:54:49.615460,gomot_a.0305.eq.wav,1,21,12334.07042541,0.83094303,True,0.482
1,1,11,1,f,24,2021-06-21 16:54:49.615460,gomot_a.0305.eq.wav,1,22,14281.50341712,-4.36362740,True,0.482
1,1,11,1,f,24,2021-06-21 16:54:49.615460,gomot_a.0305.eq.wav,1,23,16519.90424416,1.65884507,True,0.482
1,1,11,1,f,24,2021-06-21 16:54:49.615460,gomot_a.0305.eq.wav,1,24,19092.74669051,4.56862126,True,0.482
1,1,11,1,f,24,2021-06-21 16:54:49.615460,gomot_a.0305.eq.wav,1,25,22050.00000000,0.67514659,True,0.482
1,1,12,1,f,24,2021-06-21 16:54:49.615460,gomot_a.0006.eq.wav,0,0,0.00000000,2.18802854,True,0.85
1,1,12,1,f,24,2021-06-21 16:54:49.615460,gomot_a.0006.eq.wav,0,1,104.58767290,-1.67709235,True,0.85
1,1,12,1,f,24,2021-06-21 16:54:49.615460,gomot_a.0006.eq.wav,0,2,224.80189054,4.16958649,True,0.85
1,1,12,1,f,24,2021-06-21 16:54:49.615460,gomot_a.0006.eq.wav,0,3,362.97743001,0.59764997,True,0.85
1,1,12,1,f,24,2021-06-21 16:54:49.615460,gomot_a.0006.eq.wav,0,4,521.79790965,-2.29575672,True,0.85
1,1,12,1,f,24,2021-06-21 16:54:49.615460,gomot_a.0006.eq.wav,0,5,704.34790983,0.84448836,True,0.85
1,1,12,1,f,24,2021-06-21 16:54:49.615460,gomot_a.0006.eq.wav,0,6,914.17288101,-1.94688929,True,0.85
1,1,12,1,f,24,2021-06-21 16:54:49.615460,gomot_a.0006.eq.wav,0,7,1155.34800284,4.51950343,True,0.85
1,1,12,1,f,24,2021-06-21 16:54:49.615460,gomot_a.0006.eq.wav,0,8,1432.55733147,1.55035723,True,0.85
1,1,12,1,f,24,2021-06-21 16:54:49.615460,gomot_a.0006.eq.wav,0,9,1751.18477235,-0.14553431,True,0.85
1,1,12,1,f,24,2021-06-21 16:54:49.615460,gomot_a.0006.eq.wav,0,10,2117.41864548,-4.24239310,True,0.85
1,1,12,1,f,24,2021-06-21 16:54:49.615460,gomot_a.0006.eq.wav,0,11,2538.37187364,4.97765308,True,0.85
1,1,12,1,f,24,2021-06-21 16:54:49.615460,gomot_a.0006.eq.wav,0,12,3022.22012828,-1.19314817,True,0.85
1,1,12,1,f,24,2021-06-21 16:54:49.615460,gomot_a.0006.eq.wav,0,13,3578.36061576,3.67171001,True,0.85
1,1,12,1,f,24,2021-06-21 16:54:49.615460,gomot_a.0006.eq.wav,0,14,4217.59458808,4.37378991,True,0.85
1,1,12,1,f,24,2021-06-21 16:54:49.615460,gomot_a.0006.eq.wav,0,15,4952.33712269,3.69494962,True,0.85
1,1,12,1,f,24,2021-06-21 16:54:49.615460,gomot_a.0006.eq.wav,0,16,5796.85824570,-0.72216111,True,0.85
1,1,12,1,f,24,2021-06-21 16:54:49.615460,gomot_a.0006.eq.wav,0,17,6767.56008152,1.67600592,True,0.85
1,1,12,1,f,24,2021-06-21 16:54:49.615460,gomot_a.0006.eq.wav,0,18,7883.29541175,0.36951970,True,0.85
1,1,12,1,f,24,2021-06-21 16:54:49.615460,gomot_a.0006.eq.wav,0,19,9165.73383021,1.72893349,True,0.85
1,1,12,1,f,24,2021-06-21 16:54:49.615460,gomot_a.0006.eq.wav,0,20,10639.78260555,1.48020561,True,0.85
1,1,12,1,f,24,2021-06-21 16:54:49.615460,gomot_a.0006.eq.wav,0,21,12334.07042541,1.65264338,True,0.85
1,1,12,1,f,24,2021-06-21 16:54:49.615460,gomot_a.0006.eq.wav,0,22,14281.50341712,-0.27555756,True,0.85
1,1,12,1,f,24,2021-06-21 16:54:49.615460,gomot_a.0006.eq.wav,0,23,16519.90424416,2.39379711,True,0.85
1,1,12,1,f,24,2021-06-21 16:54:49.615460,gomot_a.0006.eq.wav,0,24,19092.74669051,-2.03838954,True,0.85
1,1,12,1,f,24,2021-06-21 16:54:49.615460,gomot_a.0006.eq.wav,0,25,22050.00000000,-0.18196096,True,0.85
1,1,12,1,f,24,2021-06-21 16:54:49.615460,gomot_a.0306.eq.wav,1,0,0.00000000,0.16910923,False,0.85
1,1,12,1,f,24,2021-06-21 16:54:49.615460,gomot_a.0306.eq.wav,1,1,104.58767290,3.23829395,False,0.85
1,1,12,1,f,24,2021-06-21 16:54:49.615460,gomot_a.0306.eq.wav,1,2,224.80189054,-2.97207512,False,0.85
1,1,12,1,f,24,2021-06-21 16:54:49.615460,gomot_a.0306.eq.wav,1,3,362.97743001,-4.03703186,False,0.85
1,1,12,1,f,24,2021-06-21 16:54:49.615460,gomot_a.0306.eq.wav,1,4,521.79790965,4.67798379,False,0.85
1,1,12,1,f,24,2021-06-21 16:54:49.615460,gomot_a.0306.eq.wav,1,5,704.34790983,-1.82699927,False,0.85
1,1,12,1,f,24,2021-06-21 16:54:49.615460,gomot_a.0306.eq.wav,1,6,914.17288101,-2.11839060,False,0.85
1,1,12,1,f,24,2021-06-21 16:54:49.615460,gomot_a.0306.eq.wav,1,7,1155.34800284,2.71171839,False,0.85
1,1,12,1,f,24,2021-06-21 16:54:49.615460,gomot_a.0306.eq.wav,1,8,1432.55733147,-0.96525055,False,0.85
1,1,12,1,f,24,2021-06-21 16:54:49.615460,gomot_a.0306.eq.wav,1,9,1751.18477235,-0.21721796,False,0.85
1,1,12,1,f,24,2021-06-21 16:54:49.615460,gomot_a.0306.eq.wav,1,10,2117.41864548,2.91380022,False,0.85
1,1,12,1,f,24,2021-06-21 16:54:49.615460,gomot_a.0306.eq.wav,1,11,2538.37187364,-3.93874838,False,0.85
1,1,12,1,f,24,2021-06-21 16:54:49.615460,gomot_a.0306.eq.wav,1,12,3022.22012828,-4.39073763,False,0.85
1,1,12,1,f,24,2021-06-21 16:54:49.615460,gomot_a.0306.eq.wav,1,13,3578.36061576,3.12812556,False,0.85
1,1,12,1,f,24,2021-06-21 16:54:49.615460,gomot_a.0306.eq.wav,1,14,4217.59458808,0.25500962,False,0.85
1,1,12,1,f,24,2021-06-21 16:54:49.615460,gomot_a.0306.eq.wav,1,15,4952.33712269,1.26050958,False,0.85
1,1,12,1,f,24,2021-06-21 16:54:49.615460,gomot_a.0306.eq.wav,1,16,5796.85824570,-0.19231402,False,0.85
1,1,12,1,f,24,2021-06-21 16:54:49.615460,gomot_a.0306.eq.wav,1,17,6767.56008152,0.18953790,False,0.85
1,1,12,1,f,24,2021-06-21 16:54:49.615460,gomot_a.0306.eq.wav,1,18,7883.29541175,0.68084116,False,0.85
1,1,12,1,f,24,2021-06-21 16:54:49.615460,gomot_a.0306.eq.wav,1,19,9165.73383021,-4.38103900,False,0.85
1,1,12,1,f,24,2021-06-21 16:54:49.615460,gomot_a.0306.eq.wav,1,20,10639.78260555,-2.33850676,False,0.85
1,1,12,1,f,24,2021-06-21 16:54:49.615460,gomot_a.0306.eq.wav,1,21,12334.07042541,-4.12114705,False,0.85
1,1,12,1,f,24,2021-06-21 16:54:49.615460,gomot_a.0306.eq.wav,1,22,14281.50341712,2.80694714,False,0.85
1,1,12,1,f,24,2021-06-21 16:54:49.615460,gomot_a.0306.eq.wav,1,23,16519.90424416,-3.00481120,False,0.85
1,1,12,1,f,24,2021-06-21 16:54:49.615460,gomot_a.0306.eq.wav,1,24,19092.74669051,-0.94389281,False,0.85
1,1,12,1,f,24,2021-06-21 16:54:49.615460,gomot_a.0306.eq.wav,1,25,22050.00000000,0.89729450,False,0.85
1,1,13,1,f,24,2021-06-21 16:54:49.615460,gomot_a.0007.eq.wav,0,0,0.00000000,-0.83064358,False,0.244
1,1,13,1,f,24,2021-06-21 16:54:49.615460,gomot_a.0007.eq.wav,0,1,104.58767290,0.17927812,False,0.244
1,1,13,1,f,24,2021-06-21 16:54:49.615460,gomot_a.0007.eq.wav,0,2,224.80189054,4.82177982,False,0.244
1,1,13,1,f,24,2021-06-21 16:54:49.615460,gomot_a.0007.eq.wav,0,3,362.97743001,-2.97894556,False,0.244
1,1,13,1,f,24,2021-06-21 16:54:49.615460,gomot_a.0007.eq.wav,0,4,521.79790965,2.63933577,False,0.244
1,1,13,1,f,24,2021-06-21 16:54:49.615460,gomot_a.0007.eq.wav,0,5,704.34790983,3.73360574,False,0.244
1,1,13,1,f,24,2021-06-21 16:54:49.615460,gomot_a.0007.eq.wav,0,6,914.17288101,-2.46278355,False,0.244
1,1,13,1,f,24,2021-06-21 16:54:49.615460,gomot_a.0007.eq.wav,0,7,1155.34800284,4.88329897,False,0.244
1,1,13,1,f,24,2021-06-21 16:54:49.615460,gomot_a.0007.eq.wav,0,8,1432.55733147,-1.36944959,False,0.244
1,1,13,1,f,24,2021-06-21 16:54:49.615460,gomot_a.0007.eq.wav,0,9,1751.18477235,1.55311798,False,0.244
1,1,13,1,f,24,2021-06-21 16:54:49.615460,gomot_a.0007.eq.wav,0,10,2117.41864548,2.90404319,False,0.244
1,1,13,1,f,24,2021-06-21 16:54:49.615460,gomot_a.0007.eq.wav,0,11,2538.37187364,4.90856035,False,0.244
1,1,13,1,f,24,2021-06-21 16:54:49.615460,gomot_a.0007.eq.wav,0,12,3022.22012828,1.84485169,False,0.244
1,1,13,1,f,24,2021-06-21 16:54:49.615460,gomot_a.0007.eq.wav,0,13,3578.36061576,2.03562731,False,0.244
1,1,13,1,f,24,2021-06-21 16:54:49.615460,gomot_a.0007.eq.wav,0,14,4217.59458808,-3.68451812,False,0.244
1,1,13,1,f,24,2021-06-21 16:54:49.615460,gomot_a.0007.eq.wav,0,15,4952.33712269,-1.65239714,False,0.244
1,1,13,1,f,24,2021-06-21 16:54:49.615460,gomot_a.0007.eq.wav,0,16,5796.85824570,2.56135058,False,0.244
1,1,13,1,f,24,2021-06-21 16:54:49.615460,gomot_a.0007.eq.wav,0,17,6767.56008152,-4.19475264,False,0.244
1,1,13,1,f,24,2021-06-21 16:54:49.615460,gomot_a.0007.eq.wav,0,18,7883.29541175,1.31216891,False,0.244
1,1,13,1,f,24,2021-06-21 16:54:49.615460,gomot_a.0007.eq.wav,0,19,9165.73383021,-0.96922211,False,0.244
1,1,13,1,f,24,2021-06-21 16:54:49.615460,gomot_a.0007.eq.wav,0,20,10639.78260555,3.02915438,False,0.244
1,1,13,1,f,24,2021-06-21 16:54:49.615460,gomot_a.0007.eq.wav,0,21,12334.07042541,4.18133112,False,0.244
1,1,13,1,f,24,2021-06-21 16:54:49.615460,gomot_a.0007.eq.wav,0,22,14281.50341712,-4.63466568,False,0.244
1,1,13,1,f,24,2021-06-21 16:54:49.615460,gomot_a.0007.eq.wav,0,23,16519.90424416,4.99824167,False,0.244
1,1,13,1,f,24,2021-06-21 16:54:49.615460,gomot_a.0007.eq.wav,0,24,19092.74669051,4.26485701,False,0.244
1,1,13,1,f,24,2021-06-21 16:54:49.615460,gomot_a.0007.eq.wav,0,25,22050.00000000,1.52722673,False,0.244
1,1,13,1,f,24,2021-06-21 16:54:49.615460,gomot_a.0307.eq.wav,1,0,0.00000000,-3.72329337,True,0.244
1,1,13,1,f,24,2021-06-21 16:54:49.615460,gomot_a.0307.eq.wav,1,1,104.58767290,-1.46419837,True,0.244
1,1,13,1,f,24,2021-06-21 16:54:49.615460,gomot_a.0307.eq.wav,1,2,224.80189054,2.96868776,True,0.244
1,1,13,1,f,24,2021-06-21 16:54:49.615460,gomot_a.0307.eq.wav,1,3,362.97743001,-2.10107840,True,0.244
1,1,13,1,f,24,2021-06-21 16:54:49.615460,gomot_a.0307.eq.wav,1,4,521.79790965,2.59889761,True,0.244
1,1,13,1,f,24,2021-06-21 16:54:49.615460,gomot_a.0307.eq.wav,1,5,704.34790983,1.06157866,True,0.244
1,1,13,1,f,24,2021-06-21 16:54:49.615460,gomot_a.0307.eq.wav,1,6,914.17288101,1.73149586,True,0.244
1,1,13,1,f,24,2021-06-21 16:54:49.615460,gomot_a.0307.eq.wav,1,7,1155.34800284,-2.56416990,True,0.244
1,1,13,1,f,24,2021-06-21 16:54:49.615460,gomot_a.0307.eq.wav,1,8,1432.55733147,-3.15696489,True,0.244
1,1,13,1,f,24,2021-06-21 16:54:49.615460,gomot_a.0307.eq.wav,1,9,1751.18477235,4.47128673,True,0.244
1,1,13,1,f,24,2021-06-21 16:54:49.615460,gomot_a.0307.eq.wav,1,10,2117.41864548,-3.64347024,True,0.244
1,1,13,1,f,24,2021-06-21 16:54:49.615460,gomot_a.0307.eq.wav,1,11,2538.37187364,1.45808291,True,0.244
1,1,13,1,f,24,2021-06-21 16:54:49.615460,gomot_a.0307.eq.wav,1,12,3022.22012828,-4.51348630,True,0.244
1,1,13,1,f,24,2021-06-21 16:54:49.615460,gomot_a.0307.eq.wav,1,13,3578.36061576,-2.17479290,True,0.244
1,1,13,1,f,24,2021-06-21 16:54:49.615460,gomot_a.0307.eq.wav,1,14,4217.59458808,-0.20037906,True,0.244
1,1,13,1,f,24,2021-06-21 16:54:49.615460,gomot_a.0307.eq.wav,1,15,4952.33712269,-3.27204172,True,0.244
1,1,13,1,f,24,2021-06-21 16:54:49.615460,gomot_a.0307.eq.wav,1,16,5796.85824570,-1.65965849,True,0.244
1,1,13,1,f,24,2021-06-21 16:54:49.615460,gomot_a.0307.eq.wav,1,17,6767.56008152,-1.86963887,True,0.244
1,1,13,1,f,24,2021-06-21 16:54:49.615460,gomot_a.0307.eq.wav,1,18,7883.29541175,1.82483560,True,0.244
1,1,13,1,f,24,2021-06-21 16:54:49.615460,gomot_a.0307.eq.wav,1,19,9165.73383021,4.74469626,True,0.244
1,1,13,1,f,24,2021-06-21 16:54:49.615460,gomot_a.0307.eq.wav,1,20,10639.78260555,-4.41230320,True,0.244
1,1,13,1,f,24,2021-06-21 16:54:49.615460,gomot_a.0307.eq.wav,1,21,12334.07042541,2.57482151,True,0.244
1,1,13,1,f,24,2021-06-21 16:54:49.615460,gomot_a.0307.eq.wav,1,22,14281.50341712,1.60153217,True,0.244
1,1,13,1,f,24,2021-06-21 16:54:49.615460,gomot_a.0307.eq.wav,1,23,16519.90424416,1.84754427,True,0.244
1,1,13,1,f,24,2021-06-21 16:54:49.615460,gomot_a.0307.eq.wav,1,24,19092.74669051,4.49792914,True,0.244
1,1,13,1,f,24,2021-06-21 16:54:49.615460,gomot_a.0307.eq.wav,1,25,22050.00000000,-3.76555080,True,0.244
1,1,14,1,f,24,2021-06-21 16:54:49.615460,gomot_a.0008.eq.wav,0,0,0.00000000,-3.97306523,False,0.5
1,1,14,1,f,24,2021-06-21 16:54:49.615460,gomot_a.0008.eq.wav,0,1,104.58767290,-2.00906891,False,0.5
1,1,14,1,f,24,2021-06-21 16:54:49.615460,gomot_a.0008.eq.wav,0,2,224.80189054,0.98478158,False,0.5
1,1,14,1,f,24,2021-06-21 16:54:49.615460,gomot_a.0008.eq.wav,0,3,362.97743001,-1.44563179,False,0.5
1,1,14,1,f,24,2021-06-21 16:54:49.615460,gomot_a.0008.eq.wav,0,4,521.79790965,-0.56676753,False,0.5
1,1,14,1,f,24,2021-06-21 16:54:49.615460,gomot_a.0008.eq.wav,0,5,704.34790983,4.77407612,False,0.5
1,1,14,1,f,24,2021-06-21 16:54:49.615460,gomot_a.0008.eq.wav,0,6,914.17288101,3.07262866,False,0.5
1,1,14,1,f,24,2021-06-21 16:54:49.615460,gomot_a.0008.eq.wav,0,7,1155.34800284,3.05502310,False,0.5
1,1,14,1,f,24,2021-06-21 16:54:49.615460,gomot_a.0008.eq.wav,0,8,1432.55733147,-3.89900967,False,0.5
1,1,14,1,f,24,2021-06-21 16:54:49.615460,gomot_a.0008.eq.wav,0,9,1751.18477235,0.65708411,False,0.5
1,1,14,1,f,24,2021-06-21 16:54:49.615460,gomot_a.0008.eq.wav,0,10,2117.41864548,0.41127230,False,0.5
1,1,14,1,f,24,2021-06-21 16:54:49.615460,gomot_a.0008.eq.wav,0,11,2538.37187364,-0.47891374,False,0.5
1,1,14,1,f,24,2021-06-21 16:54:49.615460,gomot_a.0008.eq.wav,0,12,3022.22012828,-0.74453010,False,0.5
1,1,14,1,f,24,2021-06-21 16:54:49.615460,gomot_a.0008.eq.wav,0,13,3578.36061576,3.75526281,False,0.5
1,1,14,1,f,24,2021-06-21 16:54:49.615460,gomot_a.0008.eq.wav,0,14,4217.59458808,-0.41224653,False,0.5
1,1,14,1,f,24,2021-06-21 16:54:49.615460,gomot_a.0008.eq.wav,0,15,4952.33712269,1.07170172,False,0.5
1,1,14,1,f,24,2021-06-21 16:54:49.615460,gomot_a.0008.eq.wav,0,16,5796.85824570,-0.27051555,False,0.5
1,1,14,1,f,24,2021-06-21 16:54:49.615460,gomot_a.0008.eq.wav,0,17,6767.56008152,3.19766361,False,0.5
1,1,14,1,f,24,2021-06-21 16:54:49.615460,gomot_a.0008.eq.wav,0,18,7883.29541175,1.18516506,False,0.5
1,1,14,1,f,24,2021-06-21 16:54:49.615460,gomot_a.0008.eq.wav,0,19,9165.73383021,-4.52521201,False,0.5
1,1,14,1,f,24,2021-06-21 16:54:49.615460,gomot_a.0008.eq.wav,0,20,10639.78260555,-2.13051961,False,0.5
1,1,14,1,f,24,2021-06-21 16:54:49.615460,gomot_a.0008.eq.wav,0,21,12334.07042541,1.42276156,False,0.5
1,1,14,1,f,24,2021-06-21 16:54:49.615460,gomot_a.0008.eq.wav,0,22,14281.50341712,3.02570615,False,0.5
1,1,14,1,f,24,2021-06-21 16:54:49.615460,gomot_a.0008.eq.wav,0,23,16519.90424416,-3.97755435,False,0.5
1,1,14,1,f,24,2021-06-21 16:54:49.615460,gomot_a.0008.eq.wav,0,24,19092.74669051,0.71013413,False,0.5
1,1,14,1,f,24,2021-06-21 16:54:49.615460,gomot_a.0008.eq.wav,0,25,22050.00000000,1.59770815,False,0.5
1,1,14,1,f,24,2021-06-21 16:54:49.615460,gomot_a.0308.eq.wav,1,0,0.00000000,-0.18575935,True,0.5
1,1,14,1,f,24,2021-06-21 16:54:49.615460,gomot_a.0308.eq.wav,1,1,104.58767290,-4.14187102,True,0.5
1,1,14,1,f,24,2021-06-21 16:54:49.615460,gomot_a.0308.eq.wav,1,2,224.80189054,1.28137728,True,0.5
1,1,14,1,f,24,2021-06-21 16:54:49.615460,gomot_a.0308.eq.wav,1,3,362.97743001,1.76613815,True,0.5
1,1,14,1,f,24,2021-06-21 16:54:49.615460,gomot_a.0308.eq.wav,1,4,521.79790965,-3.05358557,True,0.5
1,1,14,1,f,24,2021-06-21 16:54:49.615460,gomot_a.0308.eq.wav,1,5,704.34790983,-0.36864958,True,0.5
1,1,14,1,f,24,2021-06-21 16:54:49.615460,gomot_a.0308.eq.wav,1,6,914.17288101,-1.36406978,True,0.5
1,1,14,1,f,24,2021-06-21 16:54:49.615460,gomot_a.0308.eq.wav,1,7,1155.34800284,-4.44001899,True,0.5
1,1,14,1,f,24,2021-06-21 16:54:49.615460,gomot_a.0308.eq.wav,1,8,1432.55733147,-0.12441292,True,0.5
1,1,14,1,f,24,2021-06-21 16:54:49.615460,gomot_a.0308.eq.wav,1,9,1751.18477235,-1.13762703,True,0.5
1,1,14,1,f,24,2021-06-21 16:54:49.615460,gomot_a.0308.eq.wav,1,10,2117.41864548,-4.09898693,True,0.5
1,1,14,1,f,24,2021-06-21 16:54:49.615460,gomot_a.0308.eq.wav,1,11,2538.37187364,-3.03585243,True,0.5
1,1,14,1,f,24,2021-06-21 16:54:49.615460,gomot_a.0308.eq.wav,1,12,3022.22012828,2.33372542,True,0.5
1,1,14,1,f,24,2021-06-21 16:54:49.615460,gomot_a.0308.eq.wav,1,13,3578.36061576,-1.47799427,True,0.5
1,1,14,1,f,24,2021-06-21 16:54:49.615460,gomot_a.0308.eq.wav,1,14,4217.59458808,3.82608931,True,0.5
1,1,14,1,f,24,2021-06-21 16:54:49.615460,gomot_a.0308.eq.wav,1,15,4952.33712269,1.84806855,True,0.5
1,1,14,1,f,24,2021-06-21 16:54:49.615460,gomot_a.0308.eq.wav,1,16,5796.85824570,-1.21258836,True,0.5
1,1,14,1,f,24,2021-06-21 16:54:49.615460,gomot_a.0308.eq.wav,1,17,6767.56008152,2.52859136,True,0.5
1,1,14,1,f,24,2021-06-21 16:54:49.615460,gomot_a.0308.eq.wav,1,18,7883.29541175,2.64212824,True,0.5
1,1,14,1,f,24,2021-06-21 16:54:49.615460,gomot_a.0308.eq.wav,1,19,9165.73383021,-0.94999191,True,0.5
1,1,14,1,f,24,2021-06-21 16:54:49.615460,gomot_a.0308.eq.wav,1,20,10639.78260555,-0.92160730,True,0.5
1,1,14,1,f,24,2021-06-21 16:54:49.615460,gomot_a.0308.eq.wav,1,21,12334.07042541,4.58356554,True,0.5
1,1,14,1,f,24,2021-06-21 16:54:49.615460,gomot_a.0308.eq.wav,1,22,14281.50341712,-2.00940266,True,0.5
1,1,14,1,f,24,2021-06-21 16:54:49.615460,gomot_a.0308.eq.wav,1,23,16519.90424416,-2.15493930,True,0.5
1,1,14,1,f,24,2021-06-21 16:54:49.615460,gomot_a.0308.eq.wav,1,24,19092.74669051,-4.09100391,True,0.5
1,1,14,1,f,24,2021-06-21 16:54:49.615460,gomot_a.0308.eq.wav,1,25,22050.00000000,3.17635996,True,0.5
1,1,15,1,f,24,2021-06-21 16:54:49.615460,gomot_a.0009.eq.wav,0,0,0.00000000,0.93314881,True,0.292
1,1,15,1,f,24,2021-06-21 16:54:49.615460,gomot_a.0009.eq.wav,0,1,104.58767290,1.23880903,True,0.292
1,1,15,1,f,24,2021-06-21 16:54:49.615460,gomot_a.0009.eq.wav,0,2,224.80189054,-4.58291686,True,0.292
1,1,15,1,f,24,2021-06-21 16:54:49.615460,gomot_a.0009.eq.wav,0,3,362.97743001,-0.22086377,True,0.292
1,1,15,1,f,24,2021-06-21 16:54:49.615460,gomot_a.0009.eq.wav,0,4,521.79790965,4.53993681,True,0.292
1,1,15,1,f,24,2021-06-21 16:54:49.615460,gomot_a.0009.eq.wav,0,5,704.34790983,-3.42019497,True,0.292
1,1,15,1,f,24,2021-06-21 16:54:49.615460,gomot_a.0009.eq.wav,0,6,914.17288101,3.48278428,True,0.292
1,1,15,1,f,24,2021-06-21 16:54:49.615460,gomot_a.0009.eq.wav,0,7,1155.34800284,1.30191650,True,0.292
1,1,15,1,f,24,2021-06-21 16:54:49.615460,gomot_a.0009.eq.wav,0,8,1432.55733147,0.96621465,True,0.292
1,1,15,1,f,24,2021-06-21 16:54:49.615460,gomot_a.0009.eq.wav,0,9,1751.18477235,4.49464904,True,0.292
1,1,15,1,f,24,2021-06-21 16:54:49.615460,gomot_a.0009.eq.wav,0,10,2117.41864548,1.98027076,True,0.292
1,1,15,1,f,24,2021-06-21 16:54:49.615460,gomot_a.0009.eq.wav,0,11,2538.37187364,-0.55636593,True,0.292
1,1,15,1,f,24,2021-06-21 16:54:49.615460,gomot_a.0009.eq.wav,0,12,3022.22012828,-4.02665610,True,0.292
1,1,15,1,f,24,2021-06-21 16:54:49.615460,gomot_a.0009.eq.wav,0,13,3578.36061576,1.39972276,True,0.292
1,1,15,1,f,24,2021-06-21 16:54:49.615460,gomot_a.0009.eq.wav,0,14,4217.59458808,0.62442549,True,0.292
1,1,15,1,f,24,2021-06-21 16:54:49.615460,gomot_a.0009.eq.wav,0,15,4952.33712269,3.47829511,True,0.292
1,1,15,1,f,24,2021-06-21 16:54:49.615460,gomot_a.0009.eq.wav,0,16,5796.85824570,-1.38480340,True,0.292
1,1,15,1,f,24,2021-06-21 16:54:49.615460,gomot_a.0009.eq.wav,0,17,6767.56008152,1.47902115,True,0.292
1,1,15,1,f,24,2021-06-21 16:54:49.615460,gomot_a.0009.eq.wav,0,18,7883.29541175,4.38854284,True,0.292
1,1,15,1,f,24,2021-06-21 16:54:49.615460,gomot_a.0009.eq.wav,0,19,9165.73383021,1.87370980,True,0.292
1,1,15,1,f,24,2021-06-21 16:54:49.615460,gomot_a.0009.eq.wav,0,20,10639.78260555,-0.21028166,True,0.292
1,1,15,1,f,24,2021-06-21 16:54:49.615460,gomot_a.0009.eq.wav,0,21,12334.07042541,1.00367481,True,0.292
1,1,15,1,f,24,2021-06-21 16:54:49.615460,gomot_a.0009.eq.wav,0,22,14281.50341712,4.29956213,True,0.292
1,1,15,1,f,24,2021-06-21 16:54:49.615460,gomot_a.0009.eq.wav,0,23,16519.90424416,-3.93330650,True,0.292
1,1,15,1,f,24,2021-06-21 16:54:49.615460,gomot_a.0009.eq.wav,0,24,19092.74669051,4.65407419,True,0.292
1,1,15,1,f,24,2021-06-21 16:54:49.615460,gomot_a.0009.eq.wav,0,25,22050.00000000,1.30582720,True,0.292
1,1,15,1,f,24,2021-06-21 16:54:49.615460,gomot_a.0309.eq.wav,1,0,0.00000000,-2.92124554,False,0.292
1,1,15,1,f,24,2021-06-21 16:54:49.615460,gomot_a.0309.eq.wav,1,1,104.58767290,-2.42033233,False,0.292
1,1,15,1,f,24,2021-06-21 16:54:49.615460,gomot_a.0309.eq.wav,1,2,224.80189054,-3.03491825,False,0.292
1,1,15,1,f,24,2021-06-21 16:54:49.615460,gomot_a.0309.eq.wav,1,3,362.97743001,3.74415161,False,0.292
1,1,15,1,f,24,2021-06-21 16:54:49.615460,gomot_a.0309.eq.wav,1,4,521.79790965,4.52569681,False,0.292
1,1,15,1,f,24,2021-06-21 16:54:49.615460,gomot_a.0309.eq.wav,1,5,704.34790983,2.55770964,False,0.292
1,1,15,1,f,24,2021-06-21 16:54:49.615460,gomot_a.0309.eq.wav,1,6,914.17288101,0.96735751,False,0.292
1,1,15,1,f,24,2021-06-21 16:54:49.615460,gomot_a.0309.eq.wav,1,7,1155.34800284,-1.33099014,False,0.292
1,1,15,1,f,24,2021-06-21 16:54:49.615460,gomot_a.0309.eq.wav,1,8,1432.55733147,-2.50083343,False,0.292
1,1,15,1,f,24,2021-06-21 16:54:49.615460,gomot_a.0309.eq.wav,1,9,1751.18477235,1.99292418,False,0.292
1,1,15,1,f,24,2021-06-21 16:54:49.615460,gomot_a.0309.eq.wav,1,10,2117.41864548,2.20724161,False,0.292
1,1,15,1,f,24,2021-06-21 16:54:49.615460,gomot_a.0309.eq.wav,1,11,2538.37187364,4.40642073,False,0.292
1,1,15,1,f,24,2021-06-21 16:54:49.615460,gomot_a.0309.eq.wav,1,12,3022.22012828,-1.20928175,False,0.292
1,1,15,1,f,24,2021-06-21 16:54:49.615460,gomot_a.0309.eq.wav,1,13,3578.36061576,4.01133869,False,0.292
1,1,15,1,f,24,2021-06-21 16:54:49.615460,gomot_a.0309.eq.wav,1,14,4217.59458808,4.00676199,False,0.292
1,1,15,1,f,24,2021-06-21 16:54:49.615460,gomot_a.0309.eq.wav,1,15,4952.33712269,3.41329729,False,0.292
1,1,15,1,f,24,2021-06-21 16:54:49.615460,gomot_a.0309.eq.wav,1,16,5796.85824570,1.38547224,False,0.292
1,1,15,1,f,24,2021-06-21 16:54:49.615460,gomot_a.0309.eq.wav,1,17,6767.56008152,-0.83373926,False,0.292
1,1,15,1,f,24,2021-06-21 16:54:49.615460,gomot_a.0309.eq.wav,1,18,7883.29541175,1.71993036,False,0.292
1,1,15,1,f,24,2021-06-21 16:54:49.615460,gomot_a.0309.eq.wav,1,19,9165.73383021,-0.45651485,False,0.292
1,1,15,1,f,24,2021-06-21 16:54:49.615460,gomot_a.0309.eq.wav,1,20,10639.78260555,3.70580258,False,0.292
1,1,15,1,f,24,2021-06-21 16:54:49.615460,gomot_a.0309.eq.wav,1,21,12334.07042541,-4.73583657,False,0.292
1,1,15,1,f,24,2021-06-21 16:54:49.615460,gomot_a.0309.eq.wav,1,22,14281.50341712,-4.75370185,False,0.292
1,1,15,1,f,24,2021-06-21 16:54:49.615460,gomot_a.0309.eq.wav,1,23,16519.90424416,2.21014894,False,0.292
1,1,15,1,f,24,2021-06-21 16:54:49.615460,gomot_a.0309.eq.wav,1,24,19092.74669051,3.08333894,False,0.292
1,1,15,1,f,24,2021-06-21 16:54:49.615460,gomot_a.0309.eq.wav,1,25,22050.00000000,1.61318068,False,0.292
1,1,16,1,f,24,2021-06-21 16:54:49.615460,gomot_a.0010.eq.wav,0,0,0.00000000,4.76484818,False,0.492
1,1,16,1,f,24,2021-06-21 16:54:49.615460,gomot_a.0010.eq.wav,0,1,104.58767290,-3.64123341,False,0.492
1,1,16,1,f,24,2021-06-21 16:54:49.615460,gomot_a.0010.eq.wav,0,2,224.80189054,-3.29929552,False,0.492
1,1,16,1,f,24,2021-06-21 16:54:49.615460,gomot_a.0010.eq.wav,0,3,362.97743001,-1.35130748,False,0.492
1,1,16,1,f,24,2021-06-21 16:54:49.615460,gomot_a.0010.eq.wav,0,4,521.79790965,-0.42802776,False,0.492
1,1,16,1,f,24,2021-06-21 16:54:49.615460,gomot_a.0010.eq.wav,0,5,704.34790983,0.48684698,False,0.492
1,1,16,1,f,24,2021-06-21 16:54:49.615460,gomot_a.0010.eq.wav,0,6,914.17288101,3.42049675,False,0.492
1,1,16,1,f,24,2021-06-21 16:54:49.615460,gomot_a.0010.eq.wav,0,7,1155.34800284,-3.92619999,False,0.492
1,1,16,1,f,24,2021-06-21 16:54:49.615460,gomot_a.0010.eq.wav,0,8,1432.55733147,-1.48386306,False,0.492
1,1,16,1,f,24,2021-06-21 16:54:49.615460,gomot_a.0010.eq.wav,0,9,1751.18477235,1.59071940,False,0.492
1,1,16,1,f,24,2021-06-21 16:54:49.615460,gomot_a.0010.eq.wav,0,10,2117.41864548,4.80709452,False,0.492
1,1,16,1,f,24,2021-06-21 16:54:49.615460,gomot_a.0010.eq.wav,0,11,2538.37187364,-2.95180845,False,0.492
1,1,16,1,f,24,2021-06-21 16:54:49.615460,gomot_a.0010.eq.wav,0,12,3022.22012828,3.03655648,False,0.492
1,1,16,1,f,24,2021-06-21 16:54:49.615460,gomot_a.0010.eq.wav,0,13,3578.36061576,0.19126030,False,0.492
1,1,16,1,f,24,2021-06-21 16:54:49.615460,gomot_a.0010.eq.wav,0,14,4217.59458808,2.80282884,False,0.492
1,1,16,1,f,24,2021-06-21 16:54:49.615460,gomot_a.0010.eq.wav,0,15,4952.33712269,-4.33460234,False,0.492
1,1,16,1,f,24,2021-06-21 16:54:49.615460,gomot_a.0010.eq.wav,0,16,5796.85824570,-2.93737939,False,0.492
1,1,16,1,f,24,2021-06-21 16:54:49.615460,gomot_a.0010.eq.wav,0,17,6767.56008152,2.70699874,False,0.492
1,1,16,1,f,24,2021-06-21 16:54:49.615460,gomot_a.0010.eq.wav,0,18,7883.29541175,0.89940852,False,0.492
1,1,16,1,f,24,2021-06-21 16:54:49.615460,gomot_a.0010.eq.wav,0,19,9165.73383021,-3.24959485,False,0.492
1,1,16,1,f,24,2021-06-21 16:54:49.615460,gomot_a.0010.eq.wav,0,20,10639.78260555,2.96451669,False,0.492
1,1,16,1,f,24,2021-06-21 16:54:49.615460,gomot_a.0010.eq.wav,0,21,12334.07042541,0.36373860,False,0.492
1,1,16,1,f,24,2021-06-21 16:54:49.615460,gomot_a.0010.eq.wav,0,22,14281.50341712,0.41700347,False,0.492
1,1,16,1,f,24,2021-06-21 16:54:49.615460,gomot_a.0010.eq.wav,0,23,16519.90424416,0.00523963,False,0.492
1,1,16,1,f,24,2021-06-21 16:54:49.615460,gomot_a.0010.eq.wav,0,24,19092.74669051,-2.29535379,False,0.492
1,1,16,1,f,24,2021-06-21 16:54:49.615460,gomot_a.0010.eq.wav,0,25,22050.00000000,4.70737581,False,0.492
1,1,16,1,f,24,2021-06-21 16:54:49.615460,gomot_a.0310.eq.wav,1,0,0.00000000,-1.31221823,True,0.492
1,1,16,1,f,24,2021-06-21 16:54:49.615460,gomot_a.0310.eq.wav,1,1,104.58767290,1.40938314,True,0.492
1,1,16,1,f,24,2021-06-21 16:54:49.615460,gomot_a.0310.eq.wav,1,2,224.80189054,0.93221816,True,0.492
1,1,16,1,f,24,2021-06-21 16:54:49.615460,gomot_a.0310.eq.wav,1,3,362.97743001,1.32221932,True,0.492
1,1,16,1,f,24,2021-06-21 16:54:49.615460,gomot_a.0310.eq.wav,1,4,521.79790965,0.85510342,True,0.492
1,1,16,1,f,24,2021-06-21 16:54:49.615460,gomot_a.0310.eq.wav,1,5,704.34790983,-1.39009293,True,0.492
1,1,16,1,f,24,2021-06-21 16:54:49.615460,gomot_a.0310.eq.wav,1,6,914.17288101,1.40715805,True,0.492
1,1,16,1,f,24,2021-06-21 16:54:49.615460,gomot_a.0310.eq.wav,1,7,1155.34800284,-4.59095535,True,0.492
1,1,16,1,f,24,2021-06-21 16:54:49.615460,gomot_a.0310.eq.wav,1,8,1432.55733147,0.85334965,True,0.492
1,1,16,1,f,24,2021-06-21 16:54:49.615460,gomot_a.0310.eq.wav,1,9,1751.18477235,1.65441762,True,0.492
1,1,16,1,f,24,2021-06-21 16:54:49.615460,gomot_a.0310.eq.wav,1,10,2117.41864548,-2.50260941,True,0.492
1,1,16,1,f,24,2021-06-21 16:54:49.615460,gomot_a.0310.eq.wav,1,11,2538.37187364,-1.35710935,True,0.492
1,1,16,1,f,24,2021-06-21 16:54:49.615460,gomot_a.0310.eq.wav,1,12,3022.22012828,3.05811633,True,0.492
1,1,16,1,f,24,2021-06-21 16:54:49.615460,gomot_a.0310.eq.wav,1,13,3578.36061576,4.97945415,True,0.492
1,1,16,1,f,24,2021-06-21 16:54:49.615460,gomot_a.0310.eq.wav,1,14,4217.59458808,3.80611089,True,0.492
1,1,16,1,f,24,2021-06-21 16:54:49.615460,gomot_a.0310.eq.wav,1,15,4952.33712269,-3.72544784,True,0.492
1,1,16,1,f,24,2021-06-21 16:54:49.615460,gomot_a.0310.eq.wav,1,16,5796.85824570,1.60997134,True,0.492
1,1,16,1,f,24,2021-06-21 16:54:49.615460,gomot_a.0310.eq.wav,1,17,6767.56008152,-1.61888317,True,0.492
1,1,16,1,f,24,2021-06-21 16:54:49.615460,gomot_a.0310.eq.wav,1,18,7883.29541175,4.23874899,True,0.492
1,1,16,1,f,24,2021-06-21 16:54:49.615460,gomot_a.0310.eq.wav,1,19,9165.73383021,1.80161435,True,0.492
1,1,16,1,f,24,2021-06-21 16:54:49.615460,gomot_a.0310.eq.wav,1,20,10639.78260555,4.35608525,True,0.492
1,1,16,1,f,24,2021-06-21 16:54:49.615460,gomot_a.0310.eq.wav,1,21,12334.07042541,-0.19836626,True,0.492
1,1,16,1,f,24,2021-06-21 16:54:49.615460,gomot_a.0310.eq.wav,1,22,14281.50341712,-0.06063986,True,0.492
1,1,16,1,f,24,2021-06-21 16:54:49.615460,gomot_a.0310.eq.wav,1,23,16519.90424416,2.29328914,True,0.492
1,1,16,1,f,24,2021-06-21 16:54:49.615460,gomot_a.0310.eq.wav,1,24,19092.74669051,-0.94039357,True,0.492
1,1,16,1,f,24,2021-06-21 16:54:49.615460,gomot_a.0310.eq.wav,1,25,22050.00000000,1.49421160,True,0.492
1,1,17,1,f,24,2021-06-21 16:54:49.615460,gomot_a.0011.eq.wav,0,0,0.00000000,-4.12561389,False,0.167
1,1,17,1,f,24,2021-06-21 16:54:49.615460,gomot_a.0011.eq.wav,0,1,104.58767290,-2.31541116,False,0.167
1,1,17,1,f,24,2021-06-21 16:54:49.615460,gomot_a.0011.eq.wav,0,2,224.80189054,-3.04306688,False,0.167
1,1,17,1,f,24,2021-06-21 16:54:49.615460,gomot_a.0011.eq.wav,0,3,362.97743001,-4.06474299,False,0.167
1,1,17,1,f,24,2021-06-21 16:54:49.615460,gomot_a.0011.eq.wav,0,4,521.79790965,-4.62341815,False,0.167
1,1,17,1,f,24,2021-06-21 16:54:49.615460,gomot_a.0011.eq.wav,0,5,704.34790983,-3.96325332,False,0.167
1,1,17,1,f,24,2021-06-21 16:54:49.615460,gomot_a.0011.eq.wav,0,6,914.17288101,0.97757984,False,0.167
1,1,17,1,f,24,2021-06-21 16:54:49.615460,gomot_a.0011.eq.wav,0,7,1155.34800284,-0.59775428,False,0.167
1,1,17,1,f,24,2021-06-21 16:54:49.615460,gomot_a.0011.eq.wav,0,8,1432.55733147,-2.40788511,False,0.167
1,1,17,1,f,24,2021-06-21 16:54:49.615460,gomot_a.0011.eq.wav,0,9,1751.18477235,1.39700572,False,0.167
1,1,17,1,f,24,2021-06-21 16:54:49.615460,gomot_a.0011.eq.wav,0,10,2117.41864548,-3.76765562,False,0.167
1,1,17,1,f,24,2021-06-21 16:54:49.615460,gomot_a.0011.eq.wav,0,11,2538.37187364,-0.05195499,False,0.167
1,1,17,1,f,24,2021-06-21 16:54:49.615460,gomot_a.0011.eq.wav,0,12,3022.22012828,2.69782837,False,0.167
1,1,17,1,f,24,2021-06-21 16:54:49.615460,gomot_a.0011.eq.wav,0,13,3578.36061576,2.47065934,False,0.167
1,1,17,1,f,24,2021-06-21 16:54:49.615460,gomot_a.0011.eq.wav,0,14,4217.59458808,4.58377767,False,0.167
1,1,17,1,f,24,2021-06-21 16:54:49.615460,gomot_a.0011.eq.wav,0,15,4952.33712269,-0.13231159,False,0.167
1,1,17,1,f,24,2021-06-21 16:54:49.615460,gomot_a.0011.eq.wav,0,16,5796.85824570,2.57890555,False,0.167
1,1,17,1,f,24,2021-06-21 16:54:49.615460,gomot_a.0011.eq.wav,0,17,6767.56008152,2.43418886,False,0.167
1,1,17,1,f,24,2021-06-21 16:54:49.615460,gomot_a.0011.eq.wav,0,18,7883.29541175,2.65074218,False,0.167
1,1,17,1,f,24,2021-06-21 16:54:49.615460,gomot_a.0011.eq.wav,0,19,9165.73383021,1.54633138,False,0.167
1,1,17,1,f,24,2021-06-21 16:54:49.615460,gomot_a.0011.eq.wav,0,20,10639.78260555,1.85326794,False,0.167
1,1,17,1,f,24,2021-06-21 16:54:49.615460,gomot_a.0011.eq.wav,0,21,12334.07042541,-2.24421605,False,0.167
1,1,17,1,f,24,2021-06-21 16:54:49.615460,gomot_a.0011.eq.wav,0,22,14281.50341712,3.77661356,False,0.167
1,1,17,1,f,24,2021-06-21 16:54:49.615460,gomot_a.0011.eq.wav,0,23,16519.90424416,-3.58558961,False,0.167
1,1,17,1,f,24,2021-06-21 16:54:49.615460,gomot_a.0011.eq.wav,0,24,19092.74669051,3.90920763,False,0.167
1,1,17,1,f,24,2021-06-21 16:54:49.615460,gomot_a.0011.eq.wav,0,25,22050.00000000,-2.97551118,False,0.167
1,1,17,1,f,24,2021-06-21 16:54:49.615460,gomot_a.0311.eq.wav,1,0,0.00000000,2.44205272,True,0.167
1,1,17,1,f,24,2021-06-21 16:54:49.615460,gomot_a.0311.eq.wav,1,1,104.58767290,1.13159104,True,0.167
1,1,17,1,f,24,2021-06-21 16:54:49.615460,gomot_a.0311.eq.wav,1,2,224.80189054,-0.87242573,True,0.167
1,1,17,1,f,24,2021-06-21 16:54:49.615460,gomot_a.0311.eq.wav,1,3,362.97743001,-1.02179405,True,0.167
1,1,17,1,f,24,2021-06-21 16:54:49.615460,gomot_a.0311.eq.wav,1,4,521.79790965,-4.84612450,True,0.167
1,1,17,1,f,24,2021-06-21 16:54:49.615460,gomot_a.0311.eq.wav,1,5,704.34790983,0.54172803,True,0.167
1,1,17,1,f,24,2021-06-21 16:54:49.615460,gomot_a.0311.eq.wav,1,6,914.17288101,3.12389442,True,0.167
1,1,17,1,f,24,2021-06-21 16:54:49.615460,gomot_a.0311.eq.wav,1,7,1155.34800284,1.50999402,True,0.167
1,1,17,1,f,24,2021-06-21 16:54:49.615460,gomot_a.0311.eq.wav,1,8,1432.55733147,2.78278536,True,0.167
1,1,17,1,f,24,2021-06-21 16:54:49.615460,gomot_a.0311.eq.wav,1,9,1751.18477235,4.66298394,True,0.167
1,1,17,1,f,24,2021-06-21 16:54:49.615460,gomot_a.0311.eq.wav,1,10,2117.41864548,2.03818141,True,0.167
1,1,17,1,f,24,2021-06-21 16:54:49.615460,gomot_a.0311.eq.wav,1,11,2538.37187364,1.88050116,True,0.167
1,1,17,1,f,24,2021-06-21 16:54:49.615460,gomot_a.0311.eq.wav,1,12,3022.22012828,3.01230145,True,0.167
1,1,17,1,f,24,2021-06-21 16:54:49.615460,gomot_a.0311.eq.wav,1,13,3578.36061576,0.01301278,True,0.167
