subj,trial,block,sex,age,date,stim,stim_order,filter,filter_freq,filter_gain,response,rt
1,0,0,m,7,2021-03-24 10:33:35.351841,Sub1_Trial14_0.wav,0,0,100,-10.874600863249771,False,10.551
1,0,0,m,7,2021-03-24 10:33:35.351841,Sub1_Trial14_0.wav,0,1,191,11.951964790994547,False,10.551
1,0,0,m,7,2021-03-24 10:33:35.351841,Sub1_Trial14_0.wav,0,2,293,-4.568925957170626,False,10.551
1,0,0,m,7,2021-03-24 10:33:35.351841,Sub1_Trial14_0.wav,0,3,406,-2.813405076946065,False,10.551
1,0,0,m,7,2021-03-24 10:33:35.351841,Sub1_Trial14_0.wav,0,4,533,1.5599128094530244,False,10.551
1,0,0,m,7,2021-03-24 10:33:35.351841,Sub1_Trial14_0.wav,0,5,673,-2.708637586665415,False,10.551
1,0,0,m,7,2021-03-24 10:33:35.351841,Sub1_Trial14_0.wav,0,6,830,0.0955994913926464,False,10.551
1,0,0,m,7,2021-03-24 10:33:35.351841,Sub1_Trial14_0.wav,0,7,1004,2.195046437166949,False,10.551
1,0,0,m,7,2021-03-24 10:33:35.351841,Sub1_Trial14_0.wav,0,8,1199,1.861347580077253,False,10.551
1,0,0,m,7,2021-03-24 10:33:35.351841,Sub1_Trial14_0.wav,0,9,1416,3.957135941193389,False,10.551
1,0,0,m,7,2021-03-24 10:33:35.351841,Sub1_Trial14_0.wav,0,10,1657,-2.970792022565581,False,10.551
1,0,0,m,7,2021-03-24 10:33:35.351841,Sub1_Trial14_0.wav,0,11,1926,-9.327889457037454,False,10.551
1,0,0,m,7,2021-03-24 10:33:35.351841,Sub1_Trial14_0.wav,0,12,2226,-1.6364256018057977,False,10.551
1,0,0,m,7,2021-03-24 10:33:35.351841,Sub1_Trial14_0.wav,0,13,2560,-2.9562236800011603,False,10.551
1,0,0,m,7,2021-03-24 10:33:35.351841,Sub1_Trial14_0.wav,0,14,2932,-4.032722297079193,False,10.551
1,0,0,m,7,2021-03-24 10:33:35.351841,Sub1_Trial14_0.wav,0,15,3346,7.192593752068635,False,10.551
1,0,0,m,7,2021-03-24 10:33:35.351841,Sub1_Trial14_0.wav,0,16,3808,7.375562330365712,False,10.551
1,0,0,m,7,2021-03-24 10:33:35.351841,Sub1_Trial14_0.wav,0,17,4322,1.8240392506908896,False,10.551
1,0,0,m,7,2021-03-24 10:33:35.351841,Sub1_Trial14_0.wav,0,18,4895,-6.62525509246509,False,10.551
1,0,0,m,7,2021-03-24 10:33:35.351841,Sub1_Trial14_0.wav,0,19,5534,7.6286094762573455,False,10.551
1,0,0,m,7,2021-03-24 10:33:35.351841,Sub1_Trial14_0.wav,0,20,6245,-3.6211329350897223,False,10.551
1,0,0,m,7,2021-03-24 10:33:35.351841,Sub1_Trial14_0.wav,0,21,7037,2.4115979540153285,False,10.551
1,0,0,m,7,2021-03-24 10:33:35.351841,Sub1_Trial14_0.wav,0,22,7920,-5.23972487067044,False,10.551
1,0,0,m,7,2021-03-24 10:33:35.351841,Sub1_Trial14_0.wav,0,23,8904,-7.799579286699856,False,10.551
1,0,0,m,7,2021-03-24 10:33:35.351841,Sub1_Trial14_0.wav,0,24,10000,-2.062493505711057,False,10.551
1,0,0,m,7,2021-03-24 10:33:35.351841,Sub1_Trial118_0.wav,1,0,100,-0.441281527575062,True,10.551
1,0,0,m,7,2021-03-24 10:33:35.351841,Sub1_Trial118_0.wav,1,1,191,1.6330496983140481,True,10.551
1,0,0,m,7,2021-03-24 10:33:35.351841,Sub1_Trial118_0.wav,1,2,293,-2.9227846462009244,True,10.551
1,0,0,m,7,2021-03-24 10:33:35.351841,Sub1_Trial118_0.wav,1,3,406,-3.781038139405703,True,10.551
1,0,0,m,7,2021-03-24 10:33:35.351841,Sub1_Trial118_0.wav,1,4,533,-0.31764285436023226,True,10.551
1,0,0,m,7,2021-03-24 10:33:35.351841,Sub1_Trial118_0.wav,1,5,673,-4.609576161847998,True,10.551
1,0,0,m,7,2021-03-24 10:33:35.351841,Sub1_Trial118_0.wav,1,6,830,-5.420777179439618,True,10.551
1,0,0,m,7,2021-03-24 10:33:35.351841,Sub1_Trial118_0.wav,1,7,1004,-1.3167226504099216,True,10.551
1,0,0,m,7,2021-03-24 10:33:35.351841,Sub1_Trial118_0.wav,1,8,1199,-1.0980327697779413,True,10.551
1,0,0,m,7,2021-03-24 10:33:35.351841,Sub1_Trial118_0.wav,1,9,1416,11.869044887504007,True,10.551
1,0,0,m,7,2021-03-24 10:33:35.351841,Sub1_Trial118_0.wav,1,10,1657,3.00644771964871,True,10.551
1,0,0,m,7,2021-03-24 10:33:35.351841,Sub1_Trial118_0.wav,1,11,1926,6.279664324538292,True,10.551
1,0,0,m,7,2021-03-24 10:33:35.351841,Sub1_Trial118_0.wav,1,12,2226,1.6369506871230373,True,10.551
1,0,0,m,7,2021-03-24 10:33:35.351841,Sub1_Trial118_0.wav,1,13,2560,-0.2863938469686463,True,10.551
1,0,0,m,7,2021-03-24 10:33:35.351841,Sub1_Trial118_0.wav,1,14,2932,-1.8932609617147613,True,10.551
1,0,0,m,7,2021-03-24 10:33:35.351841,Sub1_Trial118_0.wav,1,15,3346,-8.016617413510437,True,10.551
1,0,0,m,7,2021-03-24 10:33:35.351841,Sub1_Trial118_0.wav,1,16,3808,-5.203574240211209,True,10.551
1,0,0,m,7,2021-03-24 10:33:35.351841,Sub1_Trial118_0.wav,1,17,4322,-1.784314307605733,True,10.551
1,0,0,m,7,2021-03-24 10:33:35.351841,Sub1_Trial118_0.wav,1,18,4895,-3.5519889945017553,True,10.551
1,0,0,m,7,2021-03-24 10:33:35.351841,Sub1_Trial118_0.wav,1,19,5534,0.09191101197474413,True,10.551
1,0,0,m,7,2021-03-24 10:33:35.351841,Sub1_Trial118_0.wav,1,20,6245,-3.49377692469173,True,10.551
1,0,0,m,7,2021-03-24 10:33:35.351841,Sub1_Trial118_0.wav,1,21,7037,2.7003785434365497,True,10.551
1,0,0,m,7,2021-03-24 10:33:35.351841,Sub1_Trial118_0.wav,1,22,7920,-11.080684311064443,True,10.551
1,0,0,m,7,2021-03-24 10:33:35.351841,Sub1_Trial118_0.wav,1,23,8904,7.331709308015713,True,10.551
1,0,0,m,7,2021-03-24 10:33:35.351841,Sub1_Trial118_0.wav,1,24,10000,4.538783266324433,True,10.551
1,1,0,m,7,2021-03-24 10:33:35.351841,Sub1_Trial280_1.wav,0,0,100,1.4554463647909262,True,11.834
1,1,0,m,7,2021-03-24 10:33:35.351841,Sub1_Trial280_1.wav,0,1,191,4.549542617100252,True,11.834
1,1,0,m,7,2021-03-24 10:33:35.351841,Sub1_Trial280_1.wav,0,2,293,5.498430857339269,True,11.834
1,1,0,m,7,2021-03-24 10:33:35.351841,Sub1_Trial280_1.wav,0,3,406,-3.0908031868209833,True,11.834
1,1,0,m,7,2021-03-24 10:33:35.351841,Sub1_Trial280_1.wav,0,4,533,5.550366267591173,True,11.834
1,1,0,m,7,2021-03-24 10:33:35.351841,Sub1_Trial280_1.wav,0,5,673,-10.866654766208534,True,11.834
1,1,0,m,7,2021-03-24 10:33:35.351841,Sub1_Trial280_1.wav,0,6,830,3.017379716257738,True,11.834
1,1,0,m,7,2021-03-24 10:33:35.351841,Sub1_Trial280_1.wav,0,7,1004,4.896491996652547,True,11.834
1,1,0,m,7,2021-03-24 10:33:35.351841,Sub1_Trial280_1.wav,0,8,1199,2.085119618752856,True,11.834
1,1,0,m,7,2021-03-24 10:33:35.351841,Sub1_Trial280_1.wav,0,9,1416,0.9921522986738656,True,11.834
1,1,0,m,7,2021-03-24 10:33:35.351841,Sub1_Trial280_1.wav,0,10,1657,10.07899647390602,True,11.834
1,1,0,m,7,2021-03-24 10:33:35.351841,Sub1_Trial280_1.wav,0,11,1926,-10.634429876544862,True,11.834
1,1,0,m,7,2021-03-24 10:33:35.351841,Sub1_Trial280_1.wav,0,12,2226,0.28488472592373787,True,11.834
1,1,0,m,7,2021-03-24 10:33:35.351841,Sub1_Trial280_1.wav,0,13,2560,-2.5775381531050456,True,11.834
1,1,0,m,7,2021-03-24 10:33:35.351841,Sub1_Trial280_1.wav,0,14,2932,-4.508235091443046,True,11.834
1,1,0,m,7,2021-03-24 10:33:35.351841,Sub1_Trial280_1.wav,0,15,3346,0.5318884771078477,True,11.834
1,1,0,m,7,2021-03-24 10:33:35.351841,Sub1_Trial280_1.wav,0,16,3808,7.2423112147949,True,11.834
1,1,0,m,7,2021-03-24 10:33:35.351841,Sub1_Trial280_1.wav,0,17,4322,4.134130186019058,True,11.834
1,1,0,m,7,2021-03-24 10:33:35.351841,Sub1_Trial280_1.wav,0,18,4895,-1.950723203169181,True,11.834
1,1,0,m,7,2021-03-24 10:33:35.351841,Sub1_Trial280_1.wav,0,19,5534,-1.3555372741207183,True,11.834
1,1,0,m,7,2021-03-24 10:33:35.351841,Sub1_Trial280_1.wav,0,20,6245,6.36343216269457,True,11.834
1,1,0,m,7,2021-03-24 10:33:35.351841,Sub1_Trial280_1.wav,0,21,7037,6.693533004723338,True,11.834
1,1,0,m,7,2021-03-24 10:33:35.351841,Sub1_Trial280_1.wav,0,22,7920,0.19112846948957357,True,11.834
1,1,0,m,7,2021-03-24 10:33:35.351841,Sub1_Trial280_1.wav,0,23,8904,0.690378338616356,True,11.834
1,1,0,m,7,2021-03-24 10:33:35.351841,Sub1_Trial280_1.wav,0,24,10000,-11.04719166867593,True,11.834
1,1,0,m,7,2021-03-24 10:33:35.351841,Sub1_Trial242_1.wav,1,0,100,-2.6249897177424852,False,11.834
1,1,0,m,7,2021-03-24 10:33:35.351841,Sub1_Trial242_1.wav,1,1,191,5.282356351964772,False,11.834
1,1,0,m,7,2021-03-24 10:33:35.351841,Sub1_Trial242_1.wav,1,2,293,-0.7734723860176764,False,11.834
1,1,0,m,7,2021-03-24 10:33:35.351841,Sub1_Trial242_1.wav,1,3,406,8.207043730541582,False,11.834
1,1,0,m,7,2021-03-24 10:33:35.351841,Sub1_Trial242_1.wav,1,4,533,1.9337330312482315,False,11.834
1,1,0,m,7,2021-03-24 10:33:35.351841,Sub1_Trial242_1.wav,1,5,673,-3.493214420307449,False,11.834
1,1,0,m,7,2021-03-24 10:33:35.351841,Sub1_Trial242_1.wav,1,6,830,4.04065555728957,False,11.834
1,1,0,m,7,2021-03-24 10:33:35.351841,Sub1_Trial242_1.wav,1,7,1004,-7.024829475361672,False,11.834
1,1,0,m,7,2021-03-24 10:33:35.351841,Sub1_Trial242_1.wav,1,8,1199,-2.267877102649911,False,11.834
1,1,0,m,7,2021-03-24 10:33:35.351841,Sub1_Trial242_1.wav,1,9,1416,-4.821471227386126,False,11.834
1,1,0,m,7,2021-03-24 10:33:35.351841,Sub1_Trial242_1.wav,1,10,1657,-2.2135267615930223,False,11.834
1,1,0,m,7,2021-03-24 10:33:35.351841,Sub1_Trial242_1.wav,1,11,1926,-0.9157785918719155,False,11.834
1,1,0,m,7,2021-03-24 10:33:35.351841,Sub1_Trial242_1.wav,1,12,2226,-7.376126048960022,False,11.834
1,1,0,m,7,2021-03-24 10:33:35.351841,Sub1_Trial242_1.wav,1,13,2560,-1.6220786175268107,False,11.834
1,1,0,m,7,2021-03-24 10:33:35.351841,Sub1_Trial242_1.wav,1,14,2932,0.549228049630152,False,11.834
1,1,0,m,7,2021-03-24 10:33:35.351841,Sub1_Trial242_1.wav,1,15,3346,-5.816410369992793,False,11.834
1,1,0,m,7,2021-03-24 10:33:35.351841,Sub1_Trial242_1.wav,1,16,3808,-5.315728855989271,False,11.834
1,1,0,m,7,2021-03-24 10:33:35.351841,Sub1_Trial242_1.wav,1,17,4322,0.4053647800891942,False,11.834
1,1,0,m,7,2021-03-24 10:33:35.351841,Sub1_Trial242_1.wav,1,18,4895,-0.004774205544069315,False,11.834
1,1,0,m,7,2021-03-24 10:33:35.351841,Sub1_Trial242_1.wav,1,19,5534,0.3594235158592188,False,11.834
1,1,0,m,7,2021-03-24 10:33:35.351841,Sub1_Trial242_1.wav,1,20,6245,4.091761662360495,False,11.834
1,1,0,m,7,2021-03-24 10:33:35.351841,Sub1_Trial242_1.wav,1,21,7037,7.493399654444122,False,11.834
1,1,0,m,7,2021-03-24 10:33:35.351841,Sub1_Trial242_1.wav,1,22,7920,4.195978396110959,False,11.834
1,1,0,m,7,2021-03-24 10:33:35.351841,Sub1_Trial242_1.wav,1,23,8904,-5.426953072458431,False,11.834
1,1,0,m,7,2021-03-24 10:33:35.351841,Sub1_Trial242_1.wav,1,24,10000,-3.27719437017169,False,11.834
1,2,0,m,7,2021-03-24 10:33:35.351841,Sub1_Trial199_1.wav,0,0,100,-11.478485480457646,False,6.223
1,2,0,m,7,2021-03-24 10:33:35.351841,Sub1_Trial199_1.wav,0,1,191,-9.749994398500405,False,6.223
1,2,0,m,7,2021-03-24 10:33:35.351841,Sub1_Trial199_1.wav,0,2,293,-6.716301145095038,False,6.223
1,2,0,m,7,2021-03-24 10:33:35.351841,Sub1_Trial199_1.wav,0,3,406,-1.5823548817124284,False,6.223
1,2,0,m,7,2021-03-24 10:33:35.351841,Sub1_Trial199_1.wav,0,4,533,4.584127787621316,False,6.223
1,2,0,m,7,2021-03-24 10:33:35.351841,Sub1_Trial199_1.wav,0,5,673,-5.216587525428614,False,6.223
1,2,0,m,7,2021-03-24 10:33:35.351841,Sub1_Trial199_1.wav,0,6,830,3.680267516920685,False,6.223
1,2,0,m,7,2021-03-24 10:33:35.351841,Sub1_Trial199_1.wav,0,7,1004,7.801317819413232,False,6.223
1,2,0,m,7,2021-03-24 10:33:35.351841,Sub1_Trial199_1.wav,0,8,1199,0.8645758395368331,False,6.223
1,2,0,m,7,2021-03-24 10:33:35.351841,Sub1_Trial199_1.wav,0,9,1416,3.6265752945547716,False,6.223
1,2,0,m,7,2021-03-24 10:33:35.351841,Sub1_Trial199_1.wav,0,10,1657,-0.736066341730392,False,6.223
1,2,0,m,7,2021-03-24 10:33:35.351841,Sub1_Trial199_1.wav,0,11,1926,5.152962177436979,False,6.223
1,2,0,m,7,2021-03-24 10:33:35.351841,Sub1_Trial199_1.wav,0,12,2226,-8.567523709860346,False,6.223
1,2,0,m,7,2021-03-24 10:33:35.351841,Sub1_Trial199_1.wav,0,13,2560,3.608608785369694,False,6.223
1,2,0,m,7,2021-03-24 10:33:35.351841,Sub1_Trial199_1.wav,0,14,2932,0.474984947505862,False,6.223
1,2,0,m,7,2021-03-24 10:33:35.351841,Sub1_Trial199_1.wav,0,15,3346,1.2270097272880107,False,6.223
1,2,0,m,7,2021-03-24 10:33:35.351841,Sub1_Trial199_1.wav,0,16,3808,0.3112218555056944,False,6.223
1,2,0,m,7,2021-03-24 10:33:35.351841,Sub1_Trial199_1.wav,0,17,4322,-6.9293576626126825,False,6.223
1,2,0,m,7,2021-03-24 10:33:35.351841,Sub1_Trial199_1.wav,0,18,4895,-1.9655110563616018,False,6.223
1,2,0,m,7,2021-03-24 10:33:35.351841,Sub1_Trial199_1.wav,0,19,5534,-4.954206620860868,False,6.223
1,2,0,m,7,2021-03-24 10:33:35.351841,Sub1_Trial199_1.wav,0,20,6245,-3.1277119858857363,False,6.223
1,2,0,m,7,2021-03-24 10:33:35.351841,Sub1_Trial199_1.wav,0,21,7037,1.9898282372500122,False,6.223
1,2,0,m,7,2021-03-24 10:33:35.351841,Sub1_Trial199_1.wav,0,22,7920,-2.9610742510513584,False,6.223
1,2,0,m,7,2021-03-24 10:33:35.351841,Sub1_Trial199_1.wav,0,23,8904,-4.722239613477732,False,6.223
1,2,0,m,7,2021-03-24 10:33:35.351841,Sub1_Trial199_1.wav,0,24,10000,-1.0811584680452873,False,6.223
1,2,0,m,7,2021-03-24 10:33:35.351841,Sub1_Trial255_1.wav,1,0,100,-10.736478863523448,True,6.223
1,2,0,m,7,2021-03-24 10:33:35.351841,Sub1_Trial255_1.wav,1,1,191,-2.920337294230422,True,6.223
1,2,0,m,7,2021-03-24 10:33:35.351841,Sub1_Trial255_1.wav,1,2,293,1.254676378134437,True,6.223
1,2,0,m,7,2021-03-24 10:33:35.351841,Sub1_Trial255_1.wav,1,3,406,-4.863023745771196,True,6.223
1,2,0,m,7,2021-03-24 10:33:35.351841,Sub1_Trial255_1.wav,1,4,533,1.2072651447301221,True,6.223
1,2,0,m,7,2021-03-24 10:33:35.351841,Sub1_Trial255_1.wav,1,5,673,-0.7770701548954668,True,6.223
1,2,0,m,7,2021-03-24 10:33:35.351841,Sub1_Trial255_1.wav,1,6,830,-2.4184677507600685,True,6.223
1,2,0,m,7,2021-03-24 10:33:35.351841,Sub1_Trial255_1.wav,1,7,1004,-1.6510346869132633,True,6.223
1,2,0,m,7,2021-03-24 10:33:35.351841,Sub1_Trial255_1.wav,1,8,1199,1.3512190901271213,True,6.223
1,2,0,m,7,2021-03-24 10:33:35.351841,Sub1_Trial255_1.wav,1,9,1416,-6.721845001758808,True,6.223
1,2,0,m,7,2021-03-24 10:33:35.351841,Sub1_Trial255_1.wav,1,10,1657,-2.393288098176065,True,6.223
1,2,0,m,7,2021-03-24 10:33:35.351841,Sub1_Trial255_1.wav,1,11,1926,-6.671970940821241,True,6.223
1,2,0,m,7,2021-03-24 10:33:35.351841,Sub1_Trial255_1.wav,1,12,2226,-6.446402645875588,True,6.223
1,2,0,m,7,2021-03-24 10:33:35.351841,Sub1_Trial255_1.wav,1,13,2560,-3.2006810835720865,True,6.223
1,2,0,m,7,2021-03-24 10:33:35.351841,Sub1_Trial255_1.wav,1,14,2932,-3.9745341270475225,True,6.223
1,2,0,m,7,2021-03-24 10:33:35.351841,Sub1_Trial255_1.wav,1,15,3346,1.9124388095207627,True,6.223
1,2,0,m,7,2021-03-24 10:33:35.351841,Sub1_Trial255_1.wav,1,16,3808,-2.853540917906039,True,6.223
1,2,0,m,7,2021-03-24 10:33:35.351841,Sub1_Trial255_1.wav,1,17,4322,-6.358223520409215,True,6.223
1,2,0,m,7,2021-03-24 10:33:35.351841,Sub1_Trial255_1.wav,1,18,4895,-0.8414245436586275,True,6.223
1,2,0,m,7,2021-03-24 10:33:35.351841,Sub1_Trial255_1.wav,1,19,5534,6.309072886299644,True,6.223
1,2,0,m,7,2021-03-24 10:33:35.351841,Sub1_Trial255_1.wav,1,20,6245,1.9597285302337395,True,6.223
1,2,0,m,7,2021-03-24 10:33:35.351841,Sub1_Trial255_1.wav,1,21,7037,3.4127705566012283,True,6.223
1,2,0,m,7,2021-03-24 10:33:35.351841,Sub1_Trial255_1.wav,1,22,7920,-2.9262615662967733,True,6.223
1,2,0,m,7,2021-03-24 10:33:35.351841,Sub1_Trial255_1.wav,1,23,8904,4.338297662445892,True,6.223
1,2,0,m,7,2021-03-24 10:33:35.351841,Sub1_Trial255_1.wav,1,24,10000,1.7315507654839144,True,6.223
1,3,1,m,7,2021-03-24 10:33:35.351841,Sub1_Trial100_0.wav,0,0,100,0.6923545840727287,True,10.698
1,3,1,m,7,2021-03-24 10:33:35.351841,Sub1_Trial100_0.wav,0,1,191,4.473916019537284,True,10.698
1,3,1,m,7,2021-03-24 10:33:35.351841,Sub1_Trial100_0.wav,0,2,293,9.128967220302899,True,10.698
1,3,1,m,7,2021-03-24 10:33:35.351841,Sub1_Trial100_0.wav,0,3,406,-11.016055681705392,True,10.698
1,3,1,m,7,2021-03-24 10:33:35.351841,Sub1_Trial100_0.wav,0,4,533,6.13164918077311,True,10.698
1,3,1,m,7,2021-03-24 10:33:35.351841,Sub1_Trial100_0.wav,0,5,673,0.9670396121002431,True,10.698
1,3,1,m,7,2021-03-24 10:33:35.351841,Sub1_Trial100_0.wav,0,6,830,-2.4583052872166746,True,10.698
1,3,1,m,7,2021-03-24 10:33:35.351841,Sub1_Trial100_0.wav,0,7,1004,-6.418842631179703,True,10.698
1,3,1,m,7,2021-03-24 10:33:35.351841,Sub1_Trial100_0.wav,0,8,1199,7.748693242016138,True,10.698
1,3,1,m,7,2021-03-24 10:33:35.351841,Sub1_Trial100_0.wav,0,9,1416,4.44289348373378,True,10.698
1,3,1,m,7,2021-03-24 10:33:35.351841,Sub1_Trial100_0.wav,0,10,1657,10.803392711559887,True,10.698
1,3,1,m,7,2021-03-24 10:33:35.351841,Sub1_Trial100_0.wav,0,11,1926,5.78755280083438,True,10.698
1,3,1,m,7,2021-03-24 10:33:35.351841,Sub1_Trial100_0.wav,0,12,2226,-4.460643695221995,True,10.698
1,3,1,m,7,2021-03-24 10:33:35.351841,Sub1_Trial100_0.wav,0,13,2560,-1.951367984799047,True,10.698
1,3,1,m,7,2021-03-24 10:33:35.351841,Sub1_Trial100_0.wav,0,14,2932,3.906090466113303,True,10.698
1,3,1,m,7,2021-03-24 10:33:35.351841,Sub1_Trial100_0.wav,0,15,3346,-4.593520987960313,True,10.698
1,3,1,m,7,2021-03-24 10:33:35.351841,Sub1_Trial100_0.wav,0,16,3808,-3.026577315470181,True,10.698
1,3,1,m,7,2021-03-24 10:33:35.351841,Sub1_Trial100_0.wav,0,17,4322,4.93457116643559,True,10.698
1,3,1,m,7,2021-03-24 10:33:35.351841,Sub1_Trial100_0.wav,0,18,4895,-4.925915051005317,True,10.698
1,3,1,m,7,2021-03-24 10:33:35.351841,Sub1_Trial100_0.wav,0,19,5534,0.2699450289958092,True,10.698
1,3,1,m,7,2021-03-24 10:33:35.351841,Sub1_Trial100_0.wav,0,20,6245,4.695021821131952,True,10.698
1,3,1,m,7,2021-03-24 10:33:35.351841,Sub1_Trial100_0.wav,0,21,7037,-5.028108511315833,True,10.698
1,3,1,m,7,2021-03-24 10:33:35.351841,Sub1_Trial100_0.wav,0,22,7920,1.781985139195068,True,10.698
1,3,1,m,7,2021-03-24 10:33:35.351841,Sub1_Trial100_0.wav,0,23,8904,-5.684238998479612,True,10.698
1,3,1,m,7,2021-03-24 10:33:35.351841,Sub1_Trial100_0.wav,0,24,10000,0.05003121001761762,True,10.698
1,3,1,m,7,2021-03-24 10:33:35.351841,Sub1_Trial236_0.wav,1,0,100,-11.159043670501942,False,10.698
1,3,1,m,7,2021-03-24 10:33:35.351841,Sub1_Trial236_0.wav,1,1,191,-4.513632994667781,False,10.698
1,3,1,m,7,2021-03-24 10:33:35.351841,Sub1_Trial236_0.wav,1,2,293,2.3278218423533805,False,10.698
1,3,1,m,7,2021-03-24 10:33:35.351841,Sub1_Trial236_0.wav,1,3,406,-9.365274959606856,False,10.698
1,3,1,m,7,2021-03-24 10:33:35.351841,Sub1_Trial236_0.wav,1,4,533,-0.46386732143977905,False,10.698
1,3,1,m,7,2021-03-24 10:33:35.351841,Sub1_Trial236_0.wav,1,5,673,-1.060664041174527,False,10.698
1,3,1,m,7,2021-03-24 10:33:35.351841,Sub1_Trial236_0.wav,1,6,830,-8.779399983255798,False,10.698
1,3,1,m,7,2021-03-24 10:33:35.351841,Sub1_Trial236_0.wav,1,7,1004,0.39215013201236726,False,10.698
1,3,1,m,7,2021-03-24 10:33:35.351841,Sub1_Trial236_0.wav,1,8,1199,1.4936242403204012,False,10.698
1,3,1,m,7,2021-03-24 10:33:35.351841,Sub1_Trial236_0.wav,1,9,1416,-7.57839033234979,False,10.698
1,3,1,m,7,2021-03-24 10:33:35.351841,Sub1_Trial236_0.wav,1,10,1657,10.306972165816822,False,10.698
1,3,1,m,7,2021-03-24 10:33:35.351841,Sub1_Trial236_0.wav,1,11,1926,-0.4607090993152775,False,10.698
1,3,1,m,7,2021-03-24 10:33:35.351841,Sub1_Trial236_0.wav,1,12,2226,-0.42459472328138836,False,10.698
1,3,1,m,7,2021-03-24 10:33:35.351841,Sub1_Trial236_0.wav,1,13,2560,-6.059358924201829,False,10.698
1,3,1,m,7,2021-03-24 10:33:35.351841,Sub1_Trial236_0.wav,1,14,2932,0.42805626525886287,False,10.698
1,3,1,m,7,2021-03-24 10:33:35.351841,Sub1_Trial236_0.wav,1,15,3346,4.792043756775721,False,10.698
1,3,1,m,7,2021-03-24 10:33:35.351841,Sub1_Trial236_0.wav,1,16,3808,-8.039531322926033,False,10.698
1,3,1,m,7,2021-03-24 10:33:35.351841,Sub1_Trial236_0.wav,1,17,4322,1.175575324588877,False,10.698
1,3,1,m,7,2021-03-24 10:33:35.351841,Sub1_Trial236_0.wav,1,18,4895,6.1437918582907685,False,10.698
1,3,1,m,7,2021-03-24 10:33:35.351841,Sub1_Trial236_0.wav,1,19,5534,-0.7004864260967605,False,10.698
1,3,1,m,7,2021-03-24 10:33:35.351841,Sub1_Trial236_0.wav,1,20,6245,0.027149855328250247,False,10.698
1,3,1,m,7,2021-03-24 10:33:35.351841,Sub1_Trial236_0.wav,1,21,7037,-0.49593579377681585,False,10.698
1,3,1,m,7,2021-03-24 10:33:35.351841,Sub1_Trial236_0.wav,1,22,7920,2.1499430093262553,False,10.698
1,3,1,m,7,2021-03-24 10:33:35.351841,Sub1_Trial236_0.wav,1,23,8904,4.609714974739206,False,10.698
1,3,1,m,7,2021-03-24 10:33:35.351841,Sub1_Trial236_0.wav,1,24,10000,1.254147588145771,False,10.698
1,4,1,m,7,2021-03-24 10:33:35.351841,Sub1_Trial100_1.wav,0,0,100,1.460847785307183,False,3.489
1,4,1,m,7,2021-03-24 10:33:35.351841,Sub1_Trial100_1.wav,0,1,191,-1.3354559868908784,False,3.489
1,4,1,m,7,2021-03-24 10:33:35.351841,Sub1_Trial100_1.wav,0,2,293,-1.747214464170268,False,3.489
1,4,1,m,7,2021-03-24 10:33:35.351841,Sub1_Trial100_1.wav,0,3,406,-0.8598872800456911,False,3.489
1,4,1,m,7,2021-03-24 10:33:35.351841,Sub1_Trial100_1.wav,0,4,533,-11.93603115216876,False,3.489
1,4,1,m,7,2021-03-24 10:33:35.351841,Sub1_Trial100_1.wav,0,5,673,1.1393619590472737,False,3.489
1,4,1,m,7,2021-03-24 10:33:35.351841,Sub1_Trial100_1.wav,0,6,830,0.7496710393943034,False,3.489
1,4,1,m,7,2021-03-24 10:33:35.351841,Sub1_Trial100_1.wav,0,7,1004,-3.6854639907436515,False,3.489
1,4,1,m,7,2021-03-24 10:33:35.351841,Sub1_Trial100_1.wav,0,8,1199,8.093677088391118,False,3.489
1,4,1,m,7,2021-03-24 10:33:35.351841,Sub1_Trial100_1.wav,0,9,1416,-2.126783666551395,False,3.489
1,4,1,m,7,2021-03-24 10:33:35.351841,Sub1_Trial100_1.wav,0,10,1657,1.0037613420666558,False,3.489
1,4,1,m,7,2021-03-24 10:33:35.351841,Sub1_Trial100_1.wav,0,11,1926,4.452804012089663,False,3.489
1,4,1,m,7,2021-03-24 10:33:35.351841,Sub1_Trial100_1.wav,0,12,2226,2.2110751421870307,False,3.489
1,4,1,m,7,2021-03-24 10:33:35.351841,Sub1_Trial100_1.wav,0,13,2560,7.744218325487915,False,3.489
1,4,1,m,7,2021-03-24 10:33:35.351841,Sub1_Trial100_1.wav,0,14,2932,0.8800496926069756,False,3.489
1,4,1,m,7,2021-03-24 10:33:35.351841,Sub1_Trial100_1.wav,0,15,3346,3.2366492110572285,False,3.489
1,4,1,m,7,2021-03-24 10:33:35.351841,Sub1_Trial100_1.wav,0,16,3808,5.696936165253572,False,3.489
1,4,1,m,7,2021-03-24 10:33:35.351841,Sub1_Trial100_1.wav,0,17,4322,1.2610449340976004,False,3.489
1,4,1,m,7,2021-03-24 10:33:35.351841,Sub1_Trial100_1.wav,0,18,4895,-2.3061023715895645,False,3.489
1,4,1,m,7,2021-03-24 10:33:35.351841,Sub1_Trial100_1.wav,0,19,5534,3.336112834463958,False,3.489
1,4,1,m,7,2021-03-24 10:33:35.351841,Sub1_Trial100_1.wav,0,20,6245,-6.921089960347042,False,3.489
1,4,1,m,7,2021-03-24 10:33:35.351841,Sub1_Trial100_1.wav,0,21,7037,-2.119654698706442,False,3.489
1,4,1,m,7,2021-03-24 10:33:35.351841,Sub1_Trial100_1.wav,0,22,7920,-5.360718254370422,False,3.489
1,4,1,m,7,2021-03-24 10:33:35.351841,Sub1_Trial100_1.wav,0,23,8904,4.697768362469011,False,3.489
1,4,1,m,7,2021-03-24 10:33:35.351841,Sub1_Trial100_1.wav,0,24,10000,-4.057387329555336,False,3.489
1,4,1,m,7,2021-03-24 10:33:35.351841,Sub1_Trial236_1.wav,1,0,100,-1.5537075457146219,True,3.489
1,4,1,m,7,2021-03-24 10:33:35.351841,Sub1_Trial236_1.wav,1,1,191,-4.151325960158357,True,3.489
1,4,1,m,7,2021-03-24 10:33:35.351841,Sub1_Trial236_1.wav,1,2,293,1.8395841610634667,True,3.489
1,4,1,m,7,2021-03-24 10:33:35.351841,Sub1_Trial236_1.wav,1,3,406,2.159029615454969,True,3.489
1,4,1,m,7,2021-03-24 10:33:35.351841,Sub1_Trial236_1.wav,1,4,533,1.3986257337964756,True,3.489
1,4,1,m,7,2021-03-24 10:33:35.351841,Sub1_Trial236_1.wav,1,5,673,6.740274332310273,True,3.489
1,4,1,m,7,2021-03-24 10:33:35.351841,Sub1_Trial236_1.wav,1,6,830,-2.667980781287398,True,3.489
1,4,1,m,7,2021-03-24 10:33:35.351841,Sub1_Trial236_1.wav,1,7,1004,3.5770166550078546,True,3.489
1,4,1,m,7,2021-03-24 10:33:35.351841,Sub1_Trial236_1.wav,1,8,1199,0.7194012889613438,True,3.489
1,4,1,m,7,2021-03-24 10:33:35.351841,Sub1_Trial236_1.wav,1,9,1416,-4.901768474244234,True,3.489
1,4,1,m,7,2021-03-24 10:33:35.351841,Sub1_Trial236_1.wav,1,10,1657,-3.9668718244646506,True,3.489
1,4,1,m,7,2021-03-24 10:33:35.351841,Sub1_Trial236_1.wav,1,11,1926,8.823210553405747,True,3.489
1,4,1,m,7,2021-03-24 10:33:35.351841,Sub1_Trial236_1.wav,1,12,2226,6.032956601488618,True,3.489
1,4,1,m,7,2021-03-24 10:33:35.351841,Sub1_Trial236_1.wav,1,13,2560,2.8668212087831018,True,3.489
1,4,1,m,7,2021-03-24 10:33:35.351841,Sub1_Trial236_1.wav,1,14,2932,-0.9179742429959736,True,3.489
1,4,1,m,7,2021-03-24 10:33:35.351841,Sub1_Trial236_1.wav,1,15,3346,0.34046838389689527,True,3.489
1,4,1,m,7,2021-03-24 10:33:35.351841,Sub1_Trial236_1.wav,1,16,3808,-2.3720700435279154,True,3.489
1,4,1,m,7,2021-03-24 10:33:35.351841,Sub1_Trial236_1.wav,1,17,4322,8.071416495222769,True,3.489
1,4,1,m,7,2021-03-24 10:33:35.351841,Sub1_Trial236_1.wav,1,18,4895,10.654499508176427,True,3.489
1,4,1,m,7,2021-03-24 10:33:35.351841,Sub1_Trial236_1.wav,1,19,5534,-9.58902363441456,True,3.489
1,4,1,m,7,2021-03-24 10:33:35.351841,Sub1_Trial236_1.wav,1,20,6245,3.1527122795696765,True,3.489
1,4,1,m,7,2021-03-24 10:33:35.351841,Sub1_Trial236_1.wav,1,21,7037,9.884976864079121,True,3.489
1,4,1,m,7,2021-03-24 10:33:35.351841,Sub1_Trial236_1.wav,1,22,7920,-3.264624725362032,True,3.489
1,4,1,m,7,2021-03-24 10:33:35.351841,Sub1_Trial236_1.wav,1,23,8904,-8.77784564701072,True,3.489
1,4,1,m,7,2021-03-24 10:33:35.351841,Sub1_Trial236_1.wav,1,24,10000,0.3538317459446288,True,3.489
1,5,1,m,7,2021-03-24 10:33:35.351841,Sub1_Trial101_0.wav,0,0,100,0.8873719089486138,True,3.75
1,5,1,m,7,2021-03-24 10:33:35.351841,Sub1_Trial101_0.wav,0,1,191,4.709801384345364,True,3.75
1,5,1,m,7,2021-03-24 10:33:35.351841,Sub1_Trial101_0.wav,0,2,293,-3.656147497151802,True,3.75
1,5,1,m,7,2021-03-24 10:33:35.351841,Sub1_Trial101_0.wav,0,3,406,-0.24555779168992153,True,3.75
1,5,1,m,7,2021-03-24 10:33:35.351841,Sub1_Trial101_0.wav,0,4,533,0.9326979769911554,True,3.75
1,5,1,m,7,2021-03-24 10:33:35.351841,Sub1_Trial101_0.wav,0,5,673,1.6211561837066544,True,3.75
1,5,1,m,7,2021-03-24 10:33:35.351841,Sub1_Trial101_0.wav,0,6,830,2.4251203851106493,True,3.75
1,5,1,m,7,2021-03-24 10:33:35.351841,Sub1_Trial101_0.wav,0,7,1004,-4.830320771316689,True,3.75
1,5,1,m,7,2021-03-24 10:33:35.351841,Sub1_Trial101_0.wav,0,8,1199,-4.231554059095913,True,3.75
1,5,1,m,7,2021-03-24 10:33:35.351841,Sub1_Trial101_0.wav,0,9,1416,-2.413514383151374,True,3.75
1,5,1,m,7,2021-03-24 10:33:35.351841,Sub1_Trial101_0.wav,0,10,1657,-0.654496051553886,True,3.75
1,5,1,m,7,2021-03-24 10:33:35.351841,Sub1_Trial101_0.wav,0,11,1926,-1.6497336274008703,True,3.75
1,5,1,m,7,2021-03-24 10:33:35.351841,Sub1_Trial101_0.wav,0,12,2226,-2.0571697660700115,True,3.75
1,5,1,m,7,2021-03-24 10:33:35.351841,Sub1_Trial101_0.wav,0,13,2560,8.627479291268877,True,3.75
1,5,1,m,7,2021-03-24 10:33:35.351841,Sub1_Trial101_0.wav,0,14,2932,8.818803270219263,True,3.75
1,5,1,m,7,2021-03-24 10:33:35.351841,Sub1_Trial101_0.wav,0,15,3346,0.8960082903563406,True,3.75
1,5,1,m,7,2021-03-24 10:33:35.351841,Sub1_Trial101_0.wav,0,16,3808,0.07779511532547076,True,3.75
1,5,1,m,7,2021-03-24 10:33:35.351841,Sub1_Trial101_0.wav,0,17,4322,-2.5467149963332547,True,3.75
1,5,1,m,7,2021-03-24 10:33:35.351841,Sub1_Trial101_0.wav,0,18,4895,0.9322570031612463,True,3.75
1,5,1,m,7,2021-03-24 10:33:35.351841,Sub1_Trial101_0.wav,0,19,5534,-5.319422637112986,True,3.75
1,5,1,m,7,2021-03-24 10:33:35.351841,Sub1_Trial101_0.wav,0,20,6245,-4.07633032480673,True,3.75
1,5,1,m,7,2021-03-24 10:33:35.351841,Sub1_Trial101_0.wav,0,21,7037,3.1012717062096087,True,3.75
1,5,1,m,7,2021-03-24 10:33:35.351841,Sub1_Trial101_0.wav,0,22,7920,5.297975685486712,True,3.75
1,5,1,m,7,2021-03-24 10:33:35.351841,Sub1_Trial101_0.wav,0,23,8904,1.8475132541062325,True,3.75
1,5,1,m,7,2021-03-24 10:33:35.351841,Sub1_Trial101_0.wav,0,24,10000,-2.598104893229845,True,3.75
1,5,1,m,7,2021-03-24 10:33:35.351841,Sub1_Trial237_0.wav,1,0,100,6.312864759373835,False,3.75
1,5,1,m,7,2021-03-24 10:33:35.351841,Sub1_Trial237_0.wav,1,1,191,8.283667589906392,False,3.75
1,5,1,m,7,2021-03-24 10:33:35.351841,Sub1_Trial237_0.wav,1,2,293,0.6259800980283017,False,3.75
1,5,1,m,7,2021-03-24 10:33:35.351841,Sub1_Trial237_0.wav,1,3,406,-4.424012813109069,False,3.75
1,5,1,m,7,2021-03-24 10:33:35.351841,Sub1_Trial237_0.wav,1,4,533,5.305463333989505,False,3.75
1,5,1,m,7,2021-03-24 10:33:35.351841,Sub1_Trial237_0.wav,1,5,673,1.7769303656851234,False,3.75
1,5,1,m,7,2021-03-24 10:33:35.351841,Sub1_Trial237_0.wav,1,6,830,3.208729030063199,False,3.75
1,5,1,m,7,2021-03-24 10:33:35.351841,Sub1_Trial237_0.wav,1,7,1004,-6.032625557193753,False,3.75
1,5,1,m,7,2021-03-24 10:33:35.351841,Sub1_Trial237_0.wav,1,8,1199,0.7399061992537126,False,3.75
1,5,1,m,7,2021-03-24 10:33:35.351841,Sub1_Trial237_0.wav,1,9,1416,-0.9401976537204625,False,3.75
1,5,1,m,7,2021-03-24 10:33:35.351841,Sub1_Trial237_0.wav,1,10,1657,-4.978656274404287,False,3.75
1,5,1,m,7,2021-03-24 10:33:35.351841,Sub1_Trial237_0.wav,1,11,1926,6.3469629539648,False,3.75
1,5,1,m,7,2021-03-24 10:33:35.351841,Sub1_Trial237_0.wav,1,12,2226,3.85524881085372,False,3.75
1,5,1,m,7,2021-03-24 10:33:35.351841,Sub1_Trial237_0.wav,1,13,2560,2.3640754281500955,False,3.75
1,5,1,m,7,2021-03-24 10:33:35.351841,Sub1_Trial237_0.wav,1,14,2932,2.455175190772544,False,3.75
1,5,1,m,7,2021-03-24 10:33:35.351841,Sub1_Trial237_0.wav,1,15,3346,-2.256030953081618,False,3.75
1,5,1,m,7,2021-03-24 10:33:35.351841,Sub1_Trial237_0.wav,1,16,3808,-0.7771421874431633,False,3.75
1,5,1,m,7,2021-03-24 10:33:35.351841,Sub1_Trial237_0.wav,1,17,4322,2.3445974192316426,False,3.75
1,5,1,m,7,2021-03-24 10:33:35.351841,Sub1_Trial237_0.wav,1,18,4895,0.6458201005913204,False,3.75
1,5,1,m,7,2021-03-24 10:33:35.351841,Sub1_Trial237_0.wav,1,19,5534,1.1334216582174923,False,3.75
1,5,1,m,7,2021-03-24 10:33:35.351841,Sub1_Trial237_0.wav,1,20,6245,-3.1739738485698954,False,3.75
1,5,1,m,7,2021-03-24 10:33:35.351841,Sub1_Trial237_0.wav,1,21,7037,1.7903082701819883,False,3.75
1,5,1,m,7,2021-03-24 10:33:35.351841,Sub1_Trial237_0.wav,1,22,7920,6.261008458110554,False,3.75
1,5,1,m,7,2021-03-24 10:33:35.351841,Sub1_Trial237_0.wav,1,23,8904,3.0890185935927756,False,3.75
1,5,1,m,7,2021-03-24 10:33:35.351841,Sub1_Trial237_0.wav,1,24,10000,-2.576403887796595,False,3.75
1,6,1,m,7,2021-03-24 10:33:35.351841,Sub1_Trial101_1.wav,0,0,100,-2.11437279329194,True,5.717
1,6,1,m,7,2021-03-24 10:33:35.351841,Sub1_Trial101_1.wav,0,1,191,-4.288945869746156,True,5.717
1,6,1,m,7,2021-03-24 10:33:35.351841,Sub1_Trial101_1.wav,0,2,293,4.137448104223237,True,5.717
1,6,1,m,7,2021-03-24 10:33:35.351841,Sub1_Trial101_1.wav,0,3,406,-7.228145575750624,True,5.717
1,6,1,m,7,2021-03-24 10:33:35.351841,Sub1_Trial101_1.wav,0,4,533,-1.9447319629534956,True,5.717
1,6,1,m,7,2021-03-24 10:33:35.351841,Sub1_Trial101_1.wav,0,5,673,5.058747565203228,True,5.717
1,6,1,m,7,2021-03-24 10:33:35.351841,Sub1_Trial101_1.wav,0,6,830,1.0433561267326867,True,5.717
1,6,1,m,7,2021-03-24 10:33:35.351841,Sub1_Trial101_1.wav,0,7,1004,0.3735257139029832,True,5.717
1,6,1,m,7,2021-03-24 10:33:35.351841,Sub1_Trial101_1.wav,0,8,1199,3.440690085763343,True,5.717
1,6,1,m,7,2021-03-24 10:33:35.351841,Sub1_Trial101_1.wav,0,9,1416,-5.886485470950962,True,5.717
1,6,1,m,7,2021-03-24 10:33:35.351841,Sub1_Trial101_1.wav,0,10,1657,0.21524711966265095,True,5.717
1,6,1,m,7,2021-03-24 10:33:35.351841,Sub1_Trial101_1.wav,0,11,1926,9.960048466140094,True,5.717
1,6,1,m,7,2021-03-24 10:33:35.351841,Sub1_Trial101_1.wav,0,12,2226,-1.9067756362101986,True,5.717
1,6,1,m,7,2021-03-24 10:33:35.351841,Sub1_Trial101_1.wav,0,13,2560,0.8223322121447452,True,5.717
1,6,1,m,7,2021-03-24 10:33:35.351841,Sub1_Trial101_1.wav,0,14,2932,1.9122639840401259,True,5.717
1,6,1,m,7,2021-03-24 10:33:35.351841,Sub1_Trial101_1.wav,0,15,3346,0.15336580784214926,True,5.717
1,6,1,m,7,2021-03-24 10:33:35.351841,Sub1_Trial101_1.wav,0,16,3808,4.244753408278353,True,5.717
1,6,1,m,7,2021-03-24 10:33:35.351841,Sub1_Trial101_1.wav,0,17,4322,1.3939340864860665,True,5.717
1,6,1,m,7,2021-03-24 10:33:35.351841,Sub1_Trial101_1.wav,0,18,4895,8.22677132060507,True,5.717
1,6,1,m,7,2021-03-24 10:33:35.351841,Sub1_Trial101_1.wav,0,19,5534,-3.82307034947385,True,5.717
1,6,1,m,7,2021-03-24 10:33:35.351841,Sub1_Trial101_1.wav,0,20,6245,3.258132673640228,True,5.717
1,6,1,m,7,2021-03-24 10:33:35.351841,Sub1_Trial101_1.wav,0,21,7037,-2.632049652265856,True,5.717
1,6,1,m,7,2021-03-24 10:33:35.351841,Sub1_Trial101_1.wav,0,22,7920,-1.1340232531890126,True,5.717
1,6,1,m,7,2021-03-24 10:33:35.351841,Sub1_Trial101_1.wav,0,23,8904,-9.36197565545411,True,5.717
1,6,1,m,7,2021-03-24 10:33:35.351841,Sub1_Trial101_1.wav,0,24,10000,1.549870073957393,True,5.717
1,6,1,m,7,2021-03-24 10:33:35.351841,Sub1_Trial237_1.wav,1,0,100,-1.1730559489259957,False,5.717
1,6,1,m,7,2021-03-24 10:33:35.351841,Sub1_Trial237_1.wav,1,1,191,2.182725028256058,False,5.717
1,6,1,m,7,2021-03-24 10:33:35.351841,Sub1_Trial237_1.wav,1,2,293,-6.332417385065424,False,5.717
1,6,1,m,7,2021-03-24 10:33:35.351841,Sub1_Trial237_1.wav,1,3,406,3.011136848727131,False,5.717
1,6,1,m,7,2021-03-24 10:33:35.351841,Sub1_Trial237_1.wav,1,4,533,1.5618101097719745,False,5.717
1,6,1,m,7,2021-03-24 10:33:35.351841,Sub1_Trial237_1.wav,1,5,673,-1.0637580998304605,False,5.717
1,6,1,m,7,2021-03-24 10:33:35.351841,Sub1_Trial237_1.wav,1,6,830,-6.15547414145526,False,5.717
1,6,1,m,7,2021-03-24 10:33:35.351841,Sub1_Trial237_1.wav,1,7,1004,-8.640347317444398,False,5.717
1,6,1,m,7,2021-03-24 10:33:35.351841,Sub1_Trial237_1.wav,1,8,1199,-5.011483199614811,False,5.717
1,6,1,m,7,2021-03-24 10:33:35.351841,Sub1_Trial237_1.wav,1,9,1416,-0.40612717281710153,False,5.717
1,6,1,m,7,2021-03-24 10:33:35.351841,Sub1_Trial237_1.wav,1,10,1657,5.426474595594055,False,5.717
1,6,1,m,7,2021-03-24 10:33:35.351841,Sub1_Trial237_1.wav,1,11,1926,-1.0920404711374303,False,5.717
1,6,1,m,7,2021-03-24 10:33:35.351841,Sub1_Trial237_1.wav,1,12,2226,-1.305742940151141,False,5.717
1,6,1,m,7,2021-03-24 10:33:35.351841,Sub1_Trial237_1.wav,1,13,2560,3.456852720364196,False,5.717
1,6,1,m,7,2021-03-24 10:33:35.351841,Sub1_Trial237_1.wav,1,14,2932,-2.4758522658192508,False,5.717
1,6,1,m,7,2021-03-24 10:33:35.351841,Sub1_Trial237_1.wav,1,15,3346,5.320718266710629,False,5.717
1,6,1,m,7,2021-03-24 10:33:35.351841,Sub1_Trial237_1.wav,1,16,3808,-3.502979549423002,False,5.717
1,6,1,m,7,2021-03-24 10:33:35.351841,Sub1_Trial237_1.wav,1,17,4322,2.386687861039462,False,5.717
1,6,1,m,7,2021-03-24 10:33:35.351841,Sub1_Trial237_1.wav,1,18,4895,1.2557802544547507,False,5.717
1,6,1,m,7,2021-03-24 10:33:35.351841,Sub1_Trial237_1.wav,1,19,5534,7.008505363378136,False,5.717
1,6,1,m,7,2021-03-24 10:33:35.351841,Sub1_Trial237_1.wav,1,20,6245,3.5236832026632934,False,5.717
1,6,1,m,7,2021-03-24 10:33:35.351841,Sub1_Trial237_1.wav,1,21,7037,-4.463144524232958,False,5.717
1,6,1,m,7,2021-03-24 10:33:35.351841,Sub1_Trial237_1.wav,1,22,7920,0.4219922782872871,False,5.717
1,6,1,m,7,2021-03-24 10:33:35.351841,Sub1_Trial237_1.wav,1,23,8904,2.6345259678320176,False,5.717
1,6,1,m,7,2021-03-24 10:33:35.351841,Sub1_Trial237_1.wav,1,24,10000,5.166510453001635,False,5.717
1,7,1,m,7,2021-03-24 10:33:35.351841,Sub1_Trial102_0.wav,0,0,100,1.059942480869777,True,2.29
1,7,1,m,7,2021-03-24 10:33:35.351841,Sub1_Trial102_0.wav,0,1,191,-1.753573482432659,True,2.29
1,7,1,m,7,2021-03-24 10:33:35.351841,Sub1_Trial102_0.wav,0,2,293,7.873909091696444,True,2.29
1,7,1,m,7,2021-03-24 10:33:35.351841,Sub1_Trial102_0.wav,0,3,406,-6.087627781063847,True,2.29
1,7,1,m,7,2021-03-24 10:33:35.351841,Sub1_Trial102_0.wav,0,4,533,10.62843543794399,True,2.29
1,7,1,m,7,2021-03-24 10:33:35.351841,Sub1_Trial102_0.wav,0,5,673,0.8160782618509224,True,2.29
1,7,1,m,7,2021-03-24 10:33:35.351841,Sub1_Trial102_0.wav,0,6,830,-0.7461331489513832,True,2.29
1,7,1,m,7,2021-03-24 10:33:35.351841,Sub1_Trial102_0.wav,0,7,1004,3.0999076130446017,True,2.29
1,7,1,m,7,2021-03-24 10:33:35.351841,Sub1_Trial102_0.wav,0,8,1199,-2.4665822625225915,True,2.29
1,7,1,m,7,2021-03-24 10:33:35.351841,Sub1_Trial102_0.wav,0,9,1416,-6.003522177641843,True,2.29
1,7,1,m,7,2021-03-24 10:33:35.351841,Sub1_Trial102_0.wav,0,10,1657,3.9756792284003035,True,2.29
1,7,1,m,7,2021-03-24 10:33:35.351841,Sub1_Trial102_0.wav,0,11,1926,11.992230826772905,True,2.29
1,7,1,m,7,2021-03-24 10:33:35.351841,Sub1_Trial102_0.wav,0,12,2226,-0.06026691442891591,True,2.29
1,7,1,m,7,2021-03-24 10:33:35.351841,Sub1_Trial102_0.wav,0,13,2560,-2.2441298698258123,True,2.29
1,7,1,m,7,2021-03-24 10:33:35.351841,Sub1_Trial102_0.wav,0,14,2932,-2.8927516889502183,True,2.29
1,7,1,m,7,2021-03-24 10:33:35.351841,Sub1_Trial102_0.wav,0,15,3346,1.1819911022239065,True,2.29
1,7,1,m,7,2021-03-24 10:33:35.351841,Sub1_Trial102_0.wav,0,16,3808,-4.7660964743922065,True,2.29
1,7,1,m,7,2021-03-24 10:33:35.351841,Sub1_Trial102_0.wav,0,17,4322,0.46874170161412326,True,2.29
1,7,1,m,7,2021-03-24 10:33:35.351841,Sub1_Trial102_0.wav,0,18,4895,1.6659590114722547,True,2.29
1,7,1,m,7,2021-03-24 10:33:35.351841,Sub1_Trial102_0.wav,0,19,5534,-2.123458692329483,True,2.29
1,7,1,m,7,2021-03-24 10:33:35.351841,Sub1_Trial102_0.wav,0,20,6245,-5.562018768806531,True,2.29
1,7,1,m,7,2021-03-24 10:33:35.351841,Sub1_Trial102_0.wav,0,21,7037,2.7894993790932068,True,2.29
1,7,1,m,7,2021-03-24 10:33:35.351841,Sub1_Trial102_0.wav,0,22,7920,10.296244568385342,True,2.29
1,7,1,m,7,2021-03-24 10:33:35.351841,Sub1_Trial102_0.wav,0,23,8904,-10.631648774869841,True,2.29
1,7,1,m,7,2021-03-24 10:33:35.351841,Sub1_Trial102_0.wav,0,24,10000,5.499162189555804,True,2.29
1,7,1,m,7,2021-03-24 10:33:35.351841,Sub1_Trial238_0.wav,1,0,100,-0.9757392304775261,False,2.29
1,7,1,m,7,2021-03-24 10:33:35.351841,Sub1_Trial238_0.wav,1,1,191,-5.7365937724151355,False,2.29
1,7,1,m,7,2021-03-24 10:33:35.351841,Sub1_Trial238_0.wav,1,2,293,8.245521121504854,False,2.29
1,7,1,m,7,2021-03-24 10:33:35.351841,Sub1_Trial238_0.wav,1,3,406,-4.132388837066085,False,2.29
1,7,1,m,7,2021-03-24 10:33:35.351841,Sub1_Trial238_0.wav,1,4,533,6.0874836533940035,False,2.29
1,7,1,m,7,2021-03-24 10:33:35.351841,Sub1_Trial238_0.wav,1,5,673,10.137031986638238,False,2.29
1,7,1,m,7,2021-03-24 10:33:35.351841,Sub1_Trial238_0.wav,1,6,830,-2.7237660479786636,False,2.29
1,7,1,m,7,2021-03-24 10:33:35.351841,Sub1_Trial238_0.wav,1,7,1004,3.462017373139204,False,2.29
1,7,1,m,7,2021-03-24 10:33:35.351841,Sub1_Trial238_0.wav,1,8,1199,0.06219618403768298,False,2.29
1,7,1,m,7,2021-03-24 10:33:35.351841,Sub1_Trial238_0.wav,1,9,1416,3.1574776135889397,False,2.29
1,7,1,m,7,2021-03-24 10:33:35.351841,Sub1_Trial238_0.wav,1,10,1657,1.7219873413113378,False,2.29
1,7,1,m,7,2021-03-24 10:33:35.351841,Sub1_Trial238_0.wav,1,11,1926,7.990737298580811,False,2.29
1,7,1,m,7,2021-03-24 10:33:35.351841,Sub1_Trial238_0.wav,1,12,2226,9.197740201434726,False,2.29
1,7,1,m,7,2021-03-24 10:33:35.351841,Sub1_Trial238_0.wav,1,13,2560,-1.165298583482074,False,2.29
1,7,1,m,7,2021-03-24 10:33:35.351841,Sub1_Trial238_0.wav,1,14,2932,-9.181498854911554,False,2.29
1,7,1,m,7,2021-03-24 10:33:35.351841,Sub1_Trial238_0.wav,1,15,3346,10.734326490879047,False,2.29
1,7,1,m,7,2021-03-24 10:33:35.351841,Sub1_Trial238_0.wav,1,16,3808,5.9167755171019945,False,2.29
1,7,1,m,7,2021-03-24 10:33:35.351841,Sub1_Trial238_0.wav,1,17,4322,-0.9738534909601384,False,2.29
1,7,1,m,7,2021-03-24 10:33:35.351841,Sub1_Trial238_0.wav,1,18,4895,-1.4657308338397539,False,2.29
1,7,1,m,7,2021-03-24 10:33:35.351841,Sub1_Trial238_0.wav,1,19,5534,-1.92935509905129,False,2.29
1,7,1,m,7,2021-03-24 10:33:35.351841,Sub1_Trial238_0.wav,1,20,6245,0.6901388219160349,False,2.29
1,7,1,m,7,2021-03-24 10:33:35.351841,Sub1_Trial238_0.wav,1,21,7037,0.5370077538436501,False,2.29
1,7,1,m,7,2021-03-24 10:33:35.351841,Sub1_Trial238_0.wav,1,22,7920,-3.263747153313583,False,2.29
1,7,1,m,7,2021-03-24 10:33:35.351841,Sub1_Trial238_0.wav,1,23,8904,-2.7575411433997497,False,2.29
1,7,1,m,7,2021-03-24 10:33:35.351841,Sub1_Trial238_0.wav,1,24,10000,-3.462009533891413,False,2.29
1,8,1,m,7,2021-03-24 10:33:35.351841,Sub1_Trial102_1.wav,0,0,100,-2.4207303022658735,False,9.61
1,8,1,m,7,2021-03-24 10:33:35.351841,Sub1_Trial102_1.wav,0,1,191,-6.148184664010668,False,9.61
1,8,1,m,7,2021-03-24 10:33:35.351841,Sub1_Trial102_1.wav,0,2,293,-2.206749297675395,False,9.61
1,8,1,m,7,2021-03-24 10:33:35.351841,Sub1_Trial102_1.wav,0,3,406,-2.8800845306546825,False,9.61
1,8,1,m,7,2021-03-24 10:33:35.351841,Sub1_Trial102_1.wav,0,4,533,5.11624743042319,False,9.61
1,8,1,m,7,2021-03-24 10:33:35.351841,Sub1_Trial102_1.wav,0,5,673,-7.633615428221726,False,9.61
1,8,1,m,7,2021-03-24 10:33:35.351841,Sub1_Trial102_1.wav,0,6,830,-4.413688708279216,False,9.61
1,8,1,m,7,2021-03-24 10:33:35.351841,Sub1_Trial102_1.wav,0,7,1004,4.155856268156551,False,9.61
1,8,1,m,7,2021-03-24 10:33:35.351841,Sub1_Trial102_1.wav,0,8,1199,4.728427704459465,False,9.61
1,8,1,m,7,2021-03-24 10:33:35.351841,Sub1_Trial102_1.wav,0,9,1416,-10.554099675309498,False,9.61
1,8,1,m,7,2021-03-24 10:33:35.351841,Sub1_Trial102_1.wav,0,10,1657,-3.935323048405669,False,9.61
1,8,1,m,7,2021-03-24 10:33:35.351841,Sub1_Trial102_1.wav,0,11,1926,-0.476209209193343,False,9.61
1,8,1,m,7,2021-03-24 10:33:35.351841,Sub1_Trial102_1.wav,0,12,2226,-4.777620543632742,False,9.61
1,8,1,m,7,2021-03-24 10:33:35.351841,Sub1_Trial102_1.wav,0,13,2560,2.9070931276265553,False,9.61
1,8,1,m,7,2021-03-24 10:33:35.351841,Sub1_Trial102_1.wav,0,14,2932,10.461731974405183,False,9.61
1,8,1,m,7,2021-03-24 10:33:35.351841,Sub1_Trial102_1.wav,0,15,3346,4.6402931008793935,False,9.61
1,8,1,m,7,2021-03-24 10:33:35.351841,Sub1_Trial102_1.wav,0,16,3808,2.780609154612406,False,9.61
1,8,1,m,7,2021-03-24 10:33:35.351841,Sub1_Trial102_1.wav,0,17,4322,3.5137524016865527,False,9.61
1,8,1,m,7,2021-03-24 10:33:35.351841,Sub1_Trial102_1.wav,0,18,4895,0.3369747394672089,False,9.61
1,8,1,m,7,2021-03-24 10:33:35.351841,Sub1_Trial102_1.wav,0,19,5534,-2.596132732668877,False,9.61
1,8,1,m,7,2021-03-24 10:33:35.351841,Sub1_Trial102_1.wav,0,20,6245,1.3692138560731004,False,9.61
1,8,1,m,7,2021-03-24 10:33:35.351841,Sub1_Trial102_1.wav,0,21,7037,-2.4758590796897364,False,9.61
1,8,1,m,7,2021-03-24 10:33:35.351841,Sub1_Trial102_1.wav,0,22,7920,6.9558275518508905,False,9.61
1,8,1,m,7,2021-03-24 10:33:35.351841,Sub1_Trial102_1.wav,0,23,8904,5.145372966009877,False,9.61
1,8,1,m,7,2021-03-24 10:33:35.351841,Sub1_Trial102_1.wav,0,24,10000,-7.173243245523223,False,9.61
1,8,1,m,7,2021-03-24 10:33:35.351841,Sub1_Trial238_1.wav,1,0,100,-0.5195782706404586,True,9.61
1,8,1,m,7,2021-03-24 10:33:35.351841,Sub1_Trial238_1.wav,1,1,191,-1.8509785834253707,True,9.61
1,8,1,m,7,2021-03-24 10:33:35.351841,Sub1_Trial238_1.wav,1,2,293,-3.287966915228171,True,9.61
1,8,1,m,7,2021-03-24 10:33:35.351841,Sub1_Trial238_1.wav,1,3,406,-5.953791259619213,True,9.61
1,8,1,m,7,2021-03-24 10:33:35.351841,Sub1_Trial238_1.wav,1,4,533,0.8035812646796043,True,9.61
1,8,1,m,7,2021-03-24 10:33:35.351841,Sub1_Trial238_1.wav,1,5,673,6.176531065274973,True,9.61
1,8,1,m,7,2021-03-24 10:33:35.351841,Sub1_Trial238_1.wav,1,6,830,-3.762724860372218,True,9.61
1,8,1,m,7,2021-03-24 10:33:35.351841,Sub1_Trial238_1.wav,1,7,1004,0.8326724727234407,True,9.61
1,8,1,m,7,2021-03-24 10:33:35.351841,Sub1_Trial238_1.wav,1,8,1199,-0.4091223152490617,True,9.61
1,8,1,m,7,2021-03-24 10:33:35.351841,Sub1_Trial238_1.wav,1,9,1416,-3.6153498414150524,True,9.61
1,8,1,m,7,2021-03-24 10:33:35.351841,Sub1_Trial238_1.wav,1,10,1657,-1.8109762669554899,True,9.61
1,8,1,m,7,2021-03-24 10:33:35.351841,Sub1_Trial238_1.wav,1,11,1926,-5.510419116776716,True,9.61
1,8,1,m,7,2021-03-24 10:33:35.351841,Sub1_Trial238_1.wav,1,12,2226,-0.45390608862263376,True,9.61
1,8,1,m,7,2021-03-24 10:33:35.351841,Sub1_Trial238_1.wav,1,13,2560,-0.640994279675871,True,9.61
1,8,1,m,7,2021-03-24 10:33:35.351841,Sub1_Trial238_1.wav,1,14,2932,-6.626348555247877,True,9.61
1,8,1,m,7,2021-03-24 10:33:35.351841,Sub1_Trial238_1.wav,1,15,3346,-8.40655133952186,True,9.61
1,8,1,m,7,2021-03-24 10:33:35.351841,Sub1_Trial238_1.wav,1,16,3808,2.4288973212486566,True,9.61
1,8,1,m,7,2021-03-24 10:33:35.351841,Sub1_Trial238_1.wav,1,17,4322,3.32519473672988,True,9.61
1,8,1,m,7,2021-03-24 10:33:35.351841,Sub1_Trial238_1.wav,1,18,4895,-0.09378537469819143,True,9.61
1,8,1,m,7,2021-03-24 10:33:35.351841,Sub1_Trial238_1.wav,1,19,5534,-1.9416354988018951,True,9.61
1,8,1,m,7,2021-03-24 10:33:35.351841,Sub1_Trial238_1.wav,1,20,6245,-5.10162174311125,True,9.61
1,8,1,m,7,2021-03-24 10:33:35.351841,Sub1_Trial238_1.wav,1,21,7037,11.813321748728569,True,9.61
1,8,1,m,7,2021-03-24 10:33:35.351841,Sub1_Trial238_1.wav,1,22,7920,-8.437810694853326,True,9.61
1,8,1,m,7,2021-03-24 10:33:35.351841,Sub1_Trial238_1.wav,1,23,8904,1.6950350649719161,True,9.61
1,8,1,m,7,2021-03-24 10:33:35.351841,Sub1_Trial238_1.wav,1,24,10000,0.007952099414527734,True,9.61
1,9,1,m,7,2021-03-24 10:33:35.351841,Sub1_Trial103_0.wav,0,0,100,1.9052024189474916,False,31.446
1,9,1,m,7,2021-03-24 10:33:35.351841,Sub1_Trial103_0.wav,0,1,191,-1.7762676360169092,False,31.446
1,9,1,m,7,2021-03-24 10:33:35.351841,Sub1_Trial103_0.wav,0,2,293,-4.380079233322476,False,31.446
1,9,1,m,7,2021-03-24 10:33:35.351841,Sub1_Trial103_0.wav,0,3,406,-2.251146346133243,False,31.446
1,9,1,m,7,2021-03-24 10:33:35.351841,Sub1_Trial103_0.wav,0,4,533,-5.170422513612789,False,31.446
1,9,1,m,7,2021-03-24 10:33:35.351841,Sub1_Trial103_0.wav,0,5,673,2.916593302625978,False,31.446
1,9,1,m,7,2021-03-24 10:33:35.351841,Sub1_Trial103_0.wav,0,6,830,-4.046617645153977,False,31.446
1,9,1,m,7,2021-03-24 10:33:35.351841,Sub1_Trial103_0.wav,0,7,1004,6.555956386340115,False,31.446
1,9,1,m,7,2021-03-24 10:33:35.351841,Sub1_Trial103_0.wav,0,8,1199,-6.10553858304003,False,31.446
1,9,1,m,7,2021-03-24 10:33:35.351841,Sub1_Trial103_0.wav,0,9,1416,-4.011737505113361,False,31.446
1,9,1,m,7,2021-03-24 10:33:35.351841,Sub1_Trial103_0.wav,0,10,1657,-8.058704296395039,False,31.446
1,9,1,m,7,2021-03-24 10:33:35.351841,Sub1_Trial103_0.wav,0,11,1926,3.2214463360484142,False,31.446
1,9,1,m,7,2021-03-24 10:33:35.351841,Sub1_Trial103_0.wav,0,12,2226,-4.021814006649536,False,31.446
1,9,1,m,7,2021-03-24 10:33:35.351841,Sub1_Trial103_0.wav,0,13,2560,-4.00539074601452,False,31.446
1,9,1,m,7,2021-03-24 10:33:35.351841,Sub1_Trial103_0.wav,0,14,2932,3.319263497359261,False,31.446
1,9,1,m,7,2021-03-24 10:33:35.351841,Sub1_Trial103_0.wav,0,15,3346,1.9802055347136798,False,31.446
1,9,1,m,7,2021-03-24 10:33:35.351841,Sub1_Trial103_0.wav,0,16,3808,0.5697803075018086,False,31.446
1,9,1,m,7,2021-03-24 10:33:35.351841,Sub1_Trial103_0.wav,0,17,4322,3.3991776700457255,False,31.446
1,9,1,m,7,2021-03-24 10:33:35.351841,Sub1_Trial103_0.wav,0,18,4895,-3.6792670566994703,False,31.446
1,9,1,m,7,2021-03-24 10:33:35.351841,Sub1_Trial103_0.wav,0,19,5534,6.223907874672452,False,31.446
1,9,1,m,7,2021-03-24 10:33:35.351841,Sub1_Trial103_0.wav,0,20,6245,1.3514826237084816,False,31.446
1,9,1,m,7,2021-03-24 10:33:35.351841,Sub1_Trial103_0.wav,0,21,7037,3.815460677098005,False,31.446
1,9,1,m,7,2021-03-24 10:33:35.351841,Sub1_Trial103_0.wav,0,22,7920,-10.177549336779562,False,31.446
1,9,1,m,7,2021-03-24 10:33:35.351841,Sub1_Trial103_0.wav,0,23,8904,-9.417510208965625,False,31.446
1,9,1,m,7,2021-03-24 10:33:35.351841,Sub1_Trial103_0.wav,0,24,10000,-0.03168221724576579,False,31.446
1,9,1,m,7,2021-03-24 10:33:35.351841,Sub1_Trial239_0.wav,1,0,100,-5.945366646658851,True,31.446
1,9,1,m,7,2021-03-24 10:33:35.351841,Sub1_Trial239_0.wav,1,1,191,6.560104458976065,True,31.446
1,9,1,m,7,2021-03-24 10:33:35.351841,Sub1_Trial239_0.wav,1,2,293,-5.738025978969072,True,31.446
1,9,1,m,7,2021-03-24 10:33:35.351841,Sub1_Trial239_0.wav,1,3,406,4.565709356585515,True,31.446
1,9,1,m,7,2021-03-24 10:33:35.351841,Sub1_Trial239_0.wav,1,4,533,4.48720913670233,True,31.446
1,9,1,m,7,2021-03-24 10:33:35.351841,Sub1_Trial239_0.wav,1,5,673,5.957612649459502,True,31.446
1,9,1,m,7,2021-03-24 10:33:35.351841,Sub1_Trial239_0.wav,1,6,830,8.611014092910633,True,31.446
1,9,1,m,7,2021-03-24 10:33:35.351841,Sub1_Trial239_0.wav,1,7,1004,-0.2489100809617114,True,31.446
1,9,1,m,7,2021-03-24 10:33:35.351841,Sub1_Trial239_0.wav,1,8,1199,2.6980020996303145,True,31.446
1,9,1,m,7,2021-03-24 10:33:35.351841,Sub1_Trial239_0.wav,1,9,1416,2.6327136646862312,True,31.446
1,9,1,m,7,2021-03-24 10:33:35.351841,Sub1_Trial239_0.wav,1,10,1657,-8.591563286029816,True,31.446
1,9,1,m,7,2021-03-24 10:33:35.351841,Sub1_Trial239_0.wav,1,11,1926,2.1385134285165766,True,31.446
1,9,1,m,7,2021-03-24 10:33:35.351841,Sub1_Trial239_0.wav,1,12,2226,5.147890336201934,True,31.446
1,9,1,m,7,2021-03-24 10:33:35.351841,Sub1_Trial239_0.wav,1,13,2560,0.20713454832743544,True,31.446
1,9,1,m,7,2021-03-24 10:33:35.351841,Sub1_Trial239_0.wav,1,14,2932,0.4920023392179907,True,31.446
1,9,1,m,7,2021-03-24 10:33:35.351841,Sub1_Trial239_0.wav,1,15,3346,-0.4513660471238491,True,31.446
1,9,1,m,7,2021-03-24 10:33:35.351841,Sub1_Trial239_0.wav,1,16,3808,0.19778542549725053,True,31.446
1,9,1,m,7,2021-03-24 10:33:35.351841,Sub1_Trial239_0.wav,1,17,4322,3.446397560804426,True,31.446
1,9,1,m,7,2021-03-24 10:33:35.351841,Sub1_Trial239_0.wav,1,18,4895,1.066975037905524,True,31.446
1,9,1,m,7,2021-03-24 10:33:35.351841,Sub1_Trial239_0.wav,1,19,5534,3.507804304879957,True,31.446
1,9,1,m,7,2021-03-24 10:33:35.351841,Sub1_Trial239_0.wav,1,20,6245,0.4290952847793771,True,31.446
1,9,1,m,7,2021-03-24 10:33:35.351841,Sub1_Trial239_0.wav,1,21,7037,2.4009469690991625,True,31.446
1,9,1,m,7,2021-03-24 10:33:35.351841,Sub1_Trial239_0.wav,1,22,7920,0.30706990692993624,True,31.446
1,9,1,m,7,2021-03-24 10:33:35.351841,Sub1_Trial239_0.wav,1,23,8904,-5.044687217333395,True,31.446
1,9,1,m,7,2021-03-24 10:33:35.351841,Sub1_Trial239_0.wav,1,24,10000,2.0353790403502354,True,31.446
1,10,1,m,7,2021-03-24 10:33:35.351841,Sub1_Trial103_1.wav,0,0,100,-2.9976275173209563,True,3.064
1,10,1,m,7,2021-03-24 10:33:35.351841,Sub1_Trial103_1.wav,0,1,191,7.205796309125908,True,3.064
1,10,1,m,7,2021-03-24 10:33:35.351841,Sub1_Trial103_1.wav,0,2,293,2.554117836916316,True,3.064
1,10,1,m,7,2021-03-24 10:33:35.351841,Sub1_Trial103_1.wav,0,3,406,-6.171917424510676,True,3.064
1,10,1,m,7,2021-03-24 10:33:35.351841,Sub1_Trial103_1.wav,0,4,533,0.5188408095633469,True,3.064
1,10,1,m,7,2021-03-24 10:33:35.351841,Sub1_Trial103_1.wav,0,5,673,-4.796300642821746,True,3.064
1,10,1,m,7,2021-03-24 10:33:35.351841,Sub1_Trial103_1.wav,0,6,830,-0.9258548912150789,True,3.064
1,10,1,m,7,2021-03-24 10:33:35.351841,Sub1_Trial103_1.wav,0,7,1004,3.230319406504736,True,3.064
1,10,1,m,7,2021-03-24 10:33:35.351841,Sub1_Trial103_1.wav,0,8,1199,-4.244418256929079,True,3.064
1,10,1,m,7,2021-03-24 10:33:35.351841,Sub1_Trial103_1.wav,0,9,1416,-5.612657567193018,True,3.064
1,10,1,m,7,2021-03-24 10:33:35.351841,Sub1_Trial103_1.wav,0,10,1657,-7.897354414051877,True,3.064
1,10,1,m,7,2021-03-24 10:33:35.351841,Sub1_Trial103_1.wav,0,11,1926,-3.2757132904623476,True,3.064
1,10,1,m,7,2021-03-24 10:33:35.351841,Sub1_Trial103_1.wav,0,12,2226,-0.3963266463665996,True,3.064
1,10,1,m,7,2021-03-24 10:33:35.351841,Sub1_Trial103_1.wav,0,13,2560,1.213386314920795,True,3.064
1,10,1,m,7,2021-03-24 10:33:35.351841,Sub1_Trial103_1.wav,0,14,2932,-2.676911349084348,True,3.064
1,10,1,m,7,2021-03-24 10:33:35.351841,Sub1_Trial103_1.wav,0,15,3346,5.858374956864515,True,3.064
1,10,1,m,7,2021-03-24 10:33:35.351841,Sub1_Trial103_1.wav,0,16,3808,-0.738997484983548,True,3.064
1,10,1,m,7,2021-03-24 10:33:35.351841,Sub1_Trial103_1.wav,0,17,4322,1.8886055698742554,True,3.064
1,10,1,m,7,2021-03-24 10:33:35.351841,Sub1_Trial103_1.wav,0,18,4895,2.100024964113232,True,3.064
1,10,1,m,7,2021-03-24 10:33:35.351841,Sub1_Trial103_1.wav,0,19,5534,1.0066272585836877,True,3.064
1,10,1,m,7,2021-03-24 10:33:35.351841,Sub1_Trial103_1.wav,0,20,6245,-6.869970537461708,True,3.064
1,10,1,m,7,2021-03-24 10:33:35.351841,Sub1_Trial103_1.wav,0,21,7037,-0.6868525373189176,True,3.064
1,10,1,m,7,2021-03-24 10:33:35.351841,Sub1_Trial103_1.wav,0,22,7920,-9.625918502522456,True,3.064
1,10,1,m,7,2021-03-24 10:33:35.351841,Sub1_Trial103_1.wav,0,23,8904,-0.4363819410283809,True,3.064
1,10,1,m,7,2021-03-24 10:33:35.351841,Sub1_Trial103_1.wav,0,24,10000,6.6855984514803275,True,3.064
1,10,1,m,7,2021-03-24 10:33:35.351841,Sub1_Trial239_1.wav,1,0,100,4.729111356605705,False,3.064
1,10,1,m,7,2021-03-24 10:33:35.351841,Sub1_Trial239_1.wav,1,1,191,-1.491698582610364,False,3.064
1,10,1,m,7,2021-03-24 10:33:35.351841,Sub1_Trial239_1.wav,1,2,293,10.475916716857212,False,3.064
1,10,1,m,7,2021-03-24 10:33:35.351841,Sub1_Trial239_1.wav,1,3,406,5.58942897172114,False,3.064
1,10,1,m,7,2021-03-24 10:33:35.351841,Sub1_Trial239_1.wav,1,4,533,2.706218685872423,False,3.064
1,10,1,m,7,2021-03-24 10:33:35.351841,Sub1_Trial239_1.wav,1,5,673,4.900692536896,False,3.064
1,10,1,m,7,2021-03-24 10:33:35.351841,Sub1_Trial239_1.wav,1,6,830,6.0305777592171435,False,3.064
1,10,1,m,7,2021-03-24 10:33:35.351841,Sub1_Trial239_1.wav,1,7,1004,-3.185464743630471,False,3.064
1,10,1,m,7,2021-03-24 10:33:35.351841,Sub1_Trial239_1.wav,1,8,1199,0.11700272996002237,False,3.064
1,10,1,m,7,2021-03-24 10:33:35.351841,Sub1_Trial239_1.wav,1,9,1416,-7.15950831336189,False,3.064
1,10,1,m,7,2021-03-24 10:33:35.351841,Sub1_Trial239_1.wav,1,10,1657,0.8837952807394716,False,3.064
1,10,1,m,7,2021-03-24 10:33:35.351841,Sub1_Trial239_1.wav,1,11,1926,2.400093798747416,False,3.064
1,10,1,m,7,2021-03-24 10:33:35.351841,Sub1_Trial239_1.wav,1,12,2226,-5.666174739860898,False,3.064
1,10,1,m,7,2021-03-24 10:33:35.351841,Sub1_Trial239_1.wav,1,13,2560,0.7365608628587188,False,3.064
1,10,1,m,7,2021-03-24 10:33:35.351841,Sub1_Trial239_1.wav,1,14,2932,6.629939513301192,False,3.064
1,10,1,m,7,2021-03-24 10:33:35.351841,Sub1_Trial239_1.wav,1,15,3346,1.7655316614382501,False,3.064
1,10,1,m,7,2021-03-24 10:33:35.351841,Sub1_Trial239_1.wav,1,16,3808,-2.2262622379781414,False,3.064
1,10,1,m,7,2021-03-24 10:33:35.351841,Sub1_Trial239_1.wav,1,17,4322,1.7017599551112288,False,3.064
1,10,1,m,7,2021-03-24 10:33:35.351841,Sub1_Trial239_1.wav,1,18,4895,-8.226014305869896,False,3.064
1,10,1,m,7,2021-03-24 10:33:35.351841,Sub1_Trial239_1.wav,1,19,5534,2.860953198310661,False,3.064
1,10,1,m,7,2021-03-24 10:33:35.351841,Sub1_Trial239_1.wav,1,20,6245,-2.526254470864171,False,3.064
1,10,1,m,7,2021-03-24 10:33:35.351841,Sub1_Trial239_1.wav,1,21,7037,-4.864570505507559,False,3.064
1,10,1,m,7,2021-03-24 10:33:35.351841,Sub1_Trial239_1.wav,1,22,7920,-5.070016527963993,False,3.064
1,10,1,m,7,2021-03-24 10:33:35.351841,Sub1_Trial239_1.wav,1,23,8904,-0.3160928168214018,False,3.064
1,10,1,m,7,2021-03-24 10:33:35.351841,Sub1_Trial239_1.wav,1,24,10000,-0.35868391544571915,False,3.064
1,11,1,m,7,2021-03-24 10:33:35.351841,Sub1_Trial104_0.wav,0,0,100,0.9745687946996834,True,2.361
1,11,1,m,7,2021-03-24 10:33:35.351841,Sub1_Trial104_0.wav,0,1,191,-1.321925053043955,True,2.361
1,11,1,m,7,2021-03-24 10:33:35.351841,Sub1_Trial104_0.wav,0,2,293,-1.0051228101041323,True,2.361
1,11,1,m,7,2021-03-24 10:33:35.351841,Sub1_Trial104_0.wav,0,3,406,4.931965075547959,True,2.361
1,11,1,m,7,2021-03-24 10:33:35.351841,Sub1_Trial104_0.wav,0,4,533,3.2510222645817177,True,2.361
1,11,1,m,7,2021-03-24 10:33:35.351841,Sub1_Trial104_0.wav,0,5,673,-3.9769299834689535,True,2.361
1,11,1,m,7,2021-03-24 10:33:35.351841,Sub1_Trial104_0.wav,0,6,830,-5.434062468349179,True,2.361
1,11,1,m,7,2021-03-24 10:33:35.351841,Sub1_Trial104_0.wav,0,7,1004,-5.696889565045826,True,2.361
1,11,1,m,7,2021-03-24 10:33:35.351841,Sub1_Trial104_0.wav,0,8,1199,6.504838625068686,True,2.361
1,11,1,m,7,2021-03-24 10:33:35.351841,Sub1_Trial104_0.wav,0,9,1416,-1.861652073083244,True,2.361
1,11,1,m,7,2021-03-24 10:33:35.351841,Sub1_Trial104_0.wav,0,10,1657,8.172654637693753,True,2.361
1,11,1,m,7,2021-03-24 10:33:35.351841,Sub1_Trial104_0.wav,0,11,1926,-1.1126896265024,True,2.361
1,11,1,m,7,2021-03-24 10:33:35.351841,Sub1_Trial104_0.wav,0,12,2226,7.067097512909573,True,2.361
1,11,1,m,7,2021-03-24 10:33:35.351841,Sub1_Trial104_0.wav,0,13,2560,-1.8561225358986806,True,2.361
1,11,1,m,7,2021-03-24 10:33:35.351841,Sub1_Trial104_0.wav,0,14,2932,-2.6899111946041976,True,2.361
1,11,1,m,7,2021-03-24 10:33:35.351841,Sub1_Trial104_0.wav,0,15,3346,-3.4025544688211395,True,2.361
1,11,1,m,7,2021-03-24 10:33:35.351841,Sub1_Trial104_0.wav,0,16,3808,0.7072462197409629,True,2.361
1,11,1,m,7,2021-03-24 10:33:35.351841,Sub1_Trial104_0.wav,0,17,4322,1.4277406619743973,True,2.361
1,11,1,m,7,2021-03-24 10:33:35.351841,Sub1_Trial104_0.wav,0,18,4895,3.128909191843942,True,2.361
1,11,1,m,7,2021-03-24 10:33:35.351841,Sub1_Trial104_0.wav,0,19,5534,2.884749491376603,True,2.361
1,11,1,m,7,2021-03-24 10:33:35.351841,Sub1_Trial104_0.wav,0,20,6245,3.182197331131724,True,2.361
1,11,1,m,7,2021-03-24 10:33:35.351841,Sub1_Trial104_0.wav,0,21,7037,6.589704215754511,True,2.361
1,11,1,m,7,2021-03-24 10:33:35.351841,Sub1_Trial104_0.wav,0,22,7920,-3.10440699309698,True,2.361
1,11,1,m,7,2021-03-24 10:33:35.351841,Sub1_Trial104_0.wav,0,23,8904,-1.1909614869193021,True,2.361
1,11,1,m,7,2021-03-24 10:33:35.351841,Sub1_Trial104_0.wav,0,24,10000,0.3577820389819409,True,2.361
1,11,1,m,7,2021-03-24 10:33:35.351841,Sub1_Trial23_0.wav,1,0,100,1.7522252578848332,False,2.361
1,11,1,m,7,2021-03-24 10:33:35.351841,Sub1_Trial23_0.wav,1,1,191,-3.5843012506201957,False,2.361
1,11,1,m,7,2021-03-24 10:33:35.351841,Sub1_Trial23_0.wav,1,2,293,8.554215307330454,False,2.361
1,11,1,m,7,2021-03-24 10:33:35.351841,Sub1_Trial23_0.wav,1,3,406,4.711668387901523,False,2.361
1,11,1,m,7,2021-03-24 10:33:35.351841,Sub1_Trial23_0.wav,1,4,533,-0.3171758799721797,False,2.361
1,11,1,m,7,2021-03-24 10:33:35.351841,Sub1_Trial23_0.wav,1,5,673,0.34337074890725133,False,2.361
1,11,1,m,7,2021-03-24 10:33:35.351841,Sub1_Trial23_0.wav,1,6,830,-0.8602433228194766,False,2.361
1,11,1,m,7,2021-03-24 10:33:35.351841,Sub1_Trial23_0.wav,1,7,1004,2.917690459412705,False,2.361
1,11,1,m,7,2021-03-24 10:33:35.351841,Sub1_Trial23_0.wav,1,8,1199,-1.6232925582669298,False,2.361
1,11,1,m,7,2021-03-24 10:33:35.351841,Sub1_Trial23_0.wav,1,9,1416,3.195709977984929,False,2.361
1,11,1,m,7,2021-03-24 10:33:35.351841,Sub1_Trial23_0.wav,1,10,1657,2.1067321013590994,False,2.361
1,11,1,m,7,2021-03-24 10:33:35.351841,Sub1_Trial23_0.wav,1,11,1926,0.01488835809361887,False,2.361
1,11,1,m,7,2021-03-24 10:33:35.351841,Sub1_Trial23_0.wav,1,12,2226,4.725673527555543,False,2.361
1,11,1,m,7,2021-03-24 10:33:35.351841,Sub1_Trial23_0.wav,1,13,2560,-4.72120832550448,False,2.361
1,11,1,m,7,2021-03-24 10:33:35.351841,Sub1_Trial23_0.wav,1,14,2932,3.706141397946774,False,2.361
1,11,1,m,7,2021-03-24 10:33:35.351841,Sub1_Trial23_0.wav,1,15,3346,-4.249168763582921,False,2.361
1,11,1,m,7,2021-03-24 10:33:35.351841,Sub1_Trial23_0.wav,1,16,3808,3.339640386518932,False,2.361
1,11,1,m,7,2021-03-24 10:33:35.351841,Sub1_Trial23_0.wav,1,17,4322,2.5623771069275785,False,2.361
1,11,1,m,7,2021-03-24 10:33:35.351841,Sub1_Trial23_0.wav,1,18,4895,3.469184545010095,False,2.361
1,11,1,m,7,2021-03-24 10:33:35.351841,Sub1_Trial23_0.wav,1,19,5534,11.511421870224204,False,2.361
1,11,1,m,7,2021-03-24 10:33:35.351841,Sub1_Trial23_0.wav,1,20,6245,6.48741997216619,False,2.361
1,11,1,m,7,2021-03-24 10:33:35.351841,Sub1_Trial23_0.wav,1,21,7037,-4.5008285250392825,False,2.361
1,11,1,m,7,2021-03-24 10:33:35.351841,Sub1_Trial23_0.wav,1,22,7920,-3.381340183180963,False,2.361
1,11,1,m,7,2021-03-24 10:33:35.351841,Sub1_Trial23_0.wav,1,23,8904,3.8396381972890126,False,2.361
1,11,1,m,7,2021-03-24 10:33:35.351841,Sub1_Trial23_0.wav,1,24,10000,6.882773534046254,False,2.361
1,12,1,m,7,2021-03-24 10:33:35.351841,Sub1_Trial104_1.wav,0,0,100,-0.40472018487383066,False,3.915
1,12,1,m,7,2021-03-24 10:33:35.351841,Sub1_Trial104_1.wav,0,1,191,-4.717056751408734,False,3.915
1,12,1,m,7,2021-03-24 10:33:35.351841,Sub1_Trial104_1.wav,0,2,293,-0.65278041094496,False,3.915
1,12,1,m,7,2021-03-24 10:33:35.351841,Sub1_Trial104_1.wav,0,3,406,6.632242190366745,False,3.915
1,12,1,m,7,2021-03-24 10:33:35.351841,Sub1_Trial104_1.wav,0,4,533,-3.157179192805763,False,3.915
1,12,1,m,7,2021-03-24 10:33:35.351841,Sub1_Trial104_1.wav,0,5,673,-0.15673075147070917,False,3.915
1,12,1,m,7,2021-03-24 10:33:35.351841,Sub1_Trial104_1.wav,0,6,830,10.863451387553633,False,3.915
1,12,1,m,7,2021-03-24 10:33:35.351841,Sub1_Trial104_1.wav,0,7,1004,1.984326307079963,False,3.915
1,12,1,m,7,2021-03-24 10:33:35.351841,Sub1_Trial104_1.wav,0,8,1199,-6.203197221396518,False,3.915
1,12,1,m,7,2021-03-24 10:33:35.351841,Sub1_Trial104_1.wav,0,9,1416,2.967305670107571,False,3.915
1,12,1,m,7,2021-03-24 10:33:35.351841,Sub1_Trial104_1.wav,0,10,1657,1.6304036259965575,False,3.915
1,12,1,m,7,2021-03-24 10:33:35.351841,Sub1_Trial104_1.wav,0,11,1926,-0.2533365604270109,False,3.915
1,12,1,m,7,2021-03-24 10:33:35.351841,Sub1_Trial104_1.wav,0,12,2226,-1.58200560857003,False,3.915
1,12,1,m,7,2021-03-24 10:33:35.351841,Sub1_Trial104_1.wav,0,13,2560,2.058301081509291,False,3.915
1,12,1,m,7,2021-03-24 10:33:35.351841,Sub1_Trial104_1.wav,0,14,2932,-3.3610962757125633,False,3.915
1,12,1,m,7,2021-03-24 10:33:35.351841,Sub1_Trial104_1.wav,0,15,3346,-2.7255028842729736,False,3.915
1,12,1,m,7,2021-03-24 10:33:35.351841,Sub1_Trial104_1.wav,0,16,3808,3.752530566294282,False,3.915
1,12,1,m,7,2021-03-24 10:33:35.351841,Sub1_Trial104_1.wav,0,17,4322,-6.770636669717735,False,3.915
1,12,1,m,7,2021-03-24 10:33:35.351841,Sub1_Trial104_1.wav,0,18,4895,-8.166084262347912,False,3.915
1,12,1,m,7,2021-03-24 10:33:35.351841,Sub1_Trial104_1.wav,0,19,5534,4.679609555597589,False,3.915
1,12,1,m,7,2021-03-24 10:33:35.351841,Sub1_Trial104_1.wav,0,20,6245,1.4869327867252193,False,3.915
1,12,1,m,7,2021-03-24 10:33:35.351841,Sub1_Trial104_1.wav,0,21,7037,-3.1962655476643165,False,3.915
1,12,1,m,7,2021-03-24 10:33:35.351841,Sub1_Trial104_1.wav,0,22,7920,6.679008849572311,False,3.915
1,12,1,m,7,2021-03-24 10:33:35.351841,Sub1_Trial104_1.wav,0,23,8904,1.9794509637419848,False,3.915
1,12,1,m,7,2021-03-24 10:33:35.351841,Sub1_Trial104_1.wav,0,24,10000,0.7073046643469931,False,3.915
1,12,1,m,7,2021-03-24 10:33:35.351841,Sub1_Trial23_1.wav,1,0,100,-0.019307209985976063,True,3.915
1,12,1,m,7,2021-03-24 10:33:35.351841,Sub1_Trial23_1.wav,1,1,191,-0.014243576335498638,True,3.915
1,12,1,m,7,2021-03-24 10:33:35.351841,Sub1_Trial23_1.wav,1,2,293,-7.636602862604556,True,3.915
1,12,1,m,7,2021-03-24 10:33:35.351841,Sub1_Trial23_1.wav,1,3,406,-2.323261373242035,True,3.915
1,12,1,m,7,2021-03-24 10:33:35.351841,Sub1_Trial23_1.wav,1,4,533,6.842504531887408,True,3.915
1,12,1,m,7,2021-03-24 10:33:35.351841,Sub1_Trial23_1.wav,1,5,673,-1.7656319225696206,True,3.915
1,12,1,m,7,2021-03-24 10:33:35.351841,Sub1_Trial23_1.wav,1,6,830,-2.2747857622382672,True,3.915
1,12,1,m,7,2021-03-24 10:33:35.351841,Sub1_Trial23_1.wav,1,7,1004,-0.8844534722854568,True,3.915
1,12,1,m,7,2021-03-24 10:33:35.351841,Sub1_Trial23_1.wav,1,8,1199,-6.305095509541276,True,3.915
1,12,1,m,7,2021-03-24 10:33:35.351841,Sub1_Trial23_1.wav,1,9,1416,6.069666469325772,True,3.915
1,12,1,m,7,2021-03-24 10:33:35.351841,Sub1_Trial23_1.wav,1,10,1657,-3.634640315494037,True,3.915
1,12,1,m,7,2021-03-24 10:33:35.351841,Sub1_Trial23_1.wav,1,11,1926,9.863258146677323,True,3.915
1,12,1,m,7,2021-03-24 10:33:35.351841,Sub1_Trial23_1.wav,1,12,2226,3.3441660556818738,True,3.915
1,12,1,m,7,2021-03-24 10:33:35.351841,Sub1_Trial23_1.wav,1,13,2560,6.952184029388526,True,3.915
1,12,1,m,7,2021-03-24 10:33:35.351841,Sub1_Trial23_1.wav,1,14,2932,-7.528044299161005,True,3.915
1,12,1,m,7,2021-03-24 10:33:35.351841,Sub1_Trial23_1.wav,1,15,3346,-1.0649139765526392,True,3.915
1,12,1,m,7,2021-03-24 10:33:35.351841,Sub1_Trial23_1.wav,1,16,3808,-5.153750002486736,True,3.915
1,12,1,m,7,2021-03-24 10:33:35.351841,Sub1_Trial23_1.wav,1,17,4322,-7.106207433645392,True,3.915
1,12,1,m,7,2021-03-24 10:33:35.351841,Sub1_Trial23_1.wav,1,18,4895,-1.7458996358715964,True,3.915
1,12,1,m,7,2021-03-24 10:33:35.351841,Sub1_Trial23_1.wav,1,19,5534,7.822333353021097,True,3.915
1,12,1,m,7,2021-03-24 10:33:35.351841,Sub1_Trial23_1.wav,1,20,6245,2.7755872907452583,True,3.915
1,12,1,m,7,2021-03-24 10:33:35.351841,Sub1_Trial23_1.wav,1,21,7037,1.5513849974935408,True,3.915
1,12,1,m,7,2021-03-24 10:33:35.351841,Sub1_Trial23_1.wav,1,22,7920,-4.519685202511389,True,3.915
1,12,1,m,7,2021-03-24 10:33:35.351841,Sub1_Trial23_1.wav,1,23,8904,2.762296910235519,True,3.915
1,12,1,m,7,2021-03-24 10:33:35.351841,Sub1_Trial23_1.wav,1,24,10000,5.177506488848898,True,3.915
1,13,1,m,7,2021-03-24 10:33:35.351841,Sub1_Trial105_0.wav,0,0,100,0.9831390050253273,False,3.433
1,13,1,m,7,2021-03-24 10:33:35.351841,Sub1_Trial105_0.wav,0,1,191,2.9060835830227933,False,3.433
1,13,1,m,7,2021-03-24 10:33:35.351841,Sub1_Trial105_0.wav,0,2,293,-0.8184106014617553,False,3.433
1,13,1,m,7,2021-03-24 10:33:35.351841,Sub1_Trial105_0.wav,0,3,406,8.852887648569176,False,3.433
1,13,1,m,7,2021-03-24 10:33:35.351841,Sub1_Trial105_0.wav,0,4,533,3.230016362444626,False,3.433
1,13,1,m,7,2021-03-24 10:33:35.351841,Sub1_Trial105_0.wav,0,5,673,-1.2294478623708192,False,3.433
1,13,1,m,7,2021-03-24 10:33:35.351841,Sub1_Trial105_0.wav,0,6,830,7.806475820305154,False,3.433
1,13,1,m,7,2021-03-24 10:33:35.351841,Sub1_Trial105_0.wav,0,7,1004,1.6483915308136563,False,3.433
1,13,1,m,7,2021-03-24 10:33:35.351841,Sub1_Trial105_0.wav,0,8,1199,2.543049540638025,False,3.433
1,13,1,m,7,2021-03-24 10:33:35.351841,Sub1_Trial105_0.wav,0,9,1416,0.07605425765991797,False,3.433
1,13,1,m,7,2021-03-24 10:33:35.351841,Sub1_Trial105_0.wav,0,10,1657,0.8553018615432306,False,3.433
1,13,1,m,7,2021-03-24 10:33:35.351841,Sub1_Trial105_0.wav,0,11,1926,-1.1127829581065254,False,3.433
1,13,1,m,7,2021-03-24 10:33:35.351841,Sub1_Trial105_0.wav,0,12,2226,5.571336355773057,False,3.433
1,13,1,m,7,2021-03-24 10:33:35.351841,Sub1_Trial105_0.wav,0,13,2560,-1.3270008287169233,False,3.433
1,13,1,m,7,2021-03-24 10:33:35.351841,Sub1_Trial105_0.wav,0,14,2932,3.7701911936462844,False,3.433
1,13,1,m,7,2021-03-24 10:33:35.351841,Sub1_Trial105_0.wav,0,15,3346,-4.138134517048428,False,3.433
1,13,1,m,7,2021-03-24 10:33:35.351841,Sub1_Trial105_0.wav,0,16,3808,-1.7530117777956429,False,3.433
1,13,1,m,7,2021-03-24 10:33:35.351841,Sub1_Trial105_0.wav,0,17,4322,-3.490567137863577,False,3.433
1,13,1,m,7,2021-03-24 10:33:35.351841,Sub1_Trial105_0.wav,0,18,4895,0.7754968854292633,False,3.433
1,13,1,m,7,2021-03-24 10:33:35.351841,Sub1_Trial105_0.wav,0,19,5534,3.5306685224484706,False,3.433
1,13,1,m,7,2021-03-24 10:33:35.351841,Sub1_Trial105_0.wav,0,20,6245,3.5879199138831517,False,3.433
1,13,1,m,7,2021-03-24 10:33:35.351841,Sub1_Trial105_0.wav,0,21,7037,-5.599379223840999,False,3.433
1,13,1,m,7,2021-03-24 10:33:35.351841,Sub1_Trial105_0.wav,0,22,7920,-8.116703508995617,False,3.433
1,13,1,m,7,2021-03-24 10:33:35.351841,Sub1_Trial105_0.wav,0,23,8904,-2.9060537896797136,False,3.433
1,13,1,m,7,2021-03-24 10:33:35.351841,Sub1_Trial105_0.wav,0,24,10000,3.7272330569433176,False,3.433
1,13,1,m,7,2021-03-24 10:33:35.351841,Sub1_Trial240_0.wav,1,0,100,1.0120002202165308,True,3.433
1,13,1,m,7,2021-03-24 10:33:35.351841,Sub1_Trial240_0.wav,1,1,191,-2.3366503676854924,True,3.433
1,13,1,m,7,2021-03-24 10:33:35.351841,Sub1_Trial240_0.wav,1,2,293,-7.48970504632828,True,3.433
1,13,1,m,7,2021-03-24 10:33:35.351841,Sub1_Trial240_0.wav,1,3,406,3.4261132967380807,True,3.433
1,13,1,m,7,2021-03-24 10:33:35.351841,Sub1_Trial240_0.wav,1,4,533,1.2463567089297276,True,3.433
1,13,1,m,7,2021-03-24 10:33:35.351841,Sub1_Trial240_0.wav,1,5,673,0.9528512755890906,True,3.433
1,13,1,m,7,2021-03-24 10:33:35.351841,Sub1_Trial240_0.wav,1,6,830,6.206747586157833,True,3.433
1,13,1,m,7,2021-03-24 10:33:35.351841,Sub1_Trial240_0.wav,1,7,1004,-0.216900571100981,True,3.433
1,13,1,m,7,2021-03-24 10:33:35.351841,Sub1_Trial240_0.wav,1,8,1199,-4.7352777228766945,True,3.433
1,13,1,m,7,2021-03-24 10:33:35.351841,Sub1_Trial240_0.wav,1,9,1416,-7.261117010246229,True,3.433
1,13,1,m,7,2021-03-24 10:33:35.351841,Sub1_Trial240_0.wav,1,10,1657,10.855940396826407,True,3.433
1,13,1,m,7,2021-03-24 10:33:35.351841,Sub1_Trial240_0.wav,1,11,1926,-0.25168837485749485,True,3.433
1,13,1,m,7,2021-03-24 10:33:35.351841,Sub1_Trial240_0.wav,1,12,2226,-0.050451957840268194,True,3.433
1,13,1,m,7,2021-03-24 10:33:35.351841,Sub1_Trial240_0.wav,1,13,2560,-5.272830259221495,True,3.433
1,13,1,m,7,2021-03-24 10:33:35.351841,Sub1_Trial240_0.wav,1,14,2932,1.65803963850808,True,3.433
1,13,1,m,7,2021-03-24 10:33:35.351841,Sub1_Trial240_0.wav,1,15,3346,6.1527616270123096,True,3.433
1,13,1,m,7,2021-03-24 10:33:35.351841,Sub1_Trial240_0.wav,1,16,3808,-0.37316753140758707,True,3.433
1,13,1,m,7,2021-03-24 10:33:35.351841,Sub1_Trial240_0.wav,1,17,4322,-4.733727135698532,True,3.433
1,13,1,m,7,2021-03-24 10:33:35.351841,Sub1_Trial240_0.wav,1,18,4895,0.2746527466031532,True,3.433
1,13,1,m,7,2021-03-24 10:33:35.351841,Sub1_Trial240_0.wav,1,19,5534,4.4562573728690715,True,3.433
1,13,1,m,7,2021-03-24 10:33:35.351841,Sub1_Trial240_0.wav,1,20,6245,-0.3903856411086742,True,3.433
1,13,1,m,7,2021-03-24 10:33:35.351841,Sub1_Trial240_0.wav,1,21,7037,9.720894316882113,True,3.433
1,13,1,m,7,2021-03-24 10:33:35.351841,Sub1_Trial240_0.wav,1,22,7920,2.766455098564003,True,3.433
1,13,1,m,7,2021-03-24 10:33:35.351841,Sub1_Trial240_0.wav,1,23,8904,0.9514681723969147,True,3.433
1,13,1,m,7,2021-03-24 10:33:35.351841,Sub1_Trial240_0.wav,1,24,10000,5.51783338200409,True,3.433
1,14,1,m,7,2021-03-24 10:33:35.351841,Sub1_Trial105_1.wav,0,0,100,-5.195398374080539,True,4.668
1,14,1,m,7,2021-03-24 10:33:35.351841,Sub1_Trial105_1.wav,0,1,191,4.245630577946324,True,4.668
1,14,1,m,7,2021-03-24 10:33:35.351841,Sub1_Trial105_1.wav,0,2,293,0.8459823867105407,True,4.668
1,14,1,m,7,2021-03-24 10:33:35.351841,Sub1_Trial105_1.wav,0,3,406,5.163560072823504,True,4.668
1,14,1,m,7,2021-03-24 10:33:35.351841,Sub1_Trial105_1.wav,0,4,533,3.967519935582387,True,4.668
1,14,1,m,7,2021-03-24 10:33:35.351841,Sub1_Trial105_1.wav,0,5,673,-0.937882484635608,True,4.668
1,14,1,m,7,2021-03-24 10:33:35.351841,Sub1_Trial105_1.wav,0,6,830,-6.767575016769406,True,4.668
1,14,1,m,7,2021-03-24 10:33:35.351841,Sub1_Trial105_1.wav,0,7,1004,0.7705753280931724,True,4.668
1,14,1,m,7,2021-03-24 10:33:35.351841,Sub1_Trial105_1.wav,0,8,1199,-3.3948753083553855,True,4.668
1,14,1,m,7,2021-03-24 10:33:35.351841,Sub1_Trial105_1.wav,0,9,1416,-2.2640966654438737,True,4.668
1,14,1,m,7,2021-03-24 10:33:35.351841,Sub1_Trial105_1.wav,0,10,1657,-4.972950361049529,True,4.668
1,14,1,m,7,2021-03-24 10:33:35.351841,Sub1_Trial105_1.wav,0,11,1926,0.8290532931647903,True,4.668
1,14,1,m,7,2021-03-24 10:33:35.351841,Sub1_Trial105_1.wav,0,12,2226,4.045216385807053,True,4.668
1,14,1,m,7,2021-03-24 10:33:35.351841,Sub1_Trial105_1.wav,0,13,2560,-3.1378349739785243,True,4.668
1,14,1,m,7,2021-03-24 10:33:35.351841,Sub1_Trial105_1.wav,0,14,2932,2.545339692299295,True,4.668
1,14,1,m,7,2021-03-24 10:33:35.351841,Sub1_Trial105_1.wav,0,15,3346,4.618801847390037,True,4.668
1,14,1,m,7,2021-03-24 10:33:35.351841,Sub1_Trial105_1.wav,0,16,3808,0.4426114699653852,True,4.668
1,14,1,m,7,2021-03-24 10:33:35.351841,Sub1_Trial105_1.wav,0,17,4322,5.099014019129302,True,4.668
1,14,1,m,7,2021-03-24 10:33:35.351841,Sub1_Trial105_1.wav,0,18,4895,-8.31079513957338,True,4.668
1,14,1,m,7,2021-03-24 10:33:35.351841,Sub1_Trial105_1.wav,0,19,5534,3.057536971080806,True,4.668
1,14,1,m,7,2021-03-24 10:33:35.351841,Sub1_Trial105_1.wav,0,20,6245,-4.8842713343072415,True,4.668
1,14,1,m,7,2021-03-24 10:33:35.351841,Sub1_Trial105_1.wav,0,21,7037,0.5596100859269647,True,4.668
1,14,1,m,7,2021-03-24 10:33:35.351841,Sub1_Trial105_1.wav,0,22,7920,1.8611803684231183,True,4.668
1,14,1,m,7,2021-03-24 10:33:35.351841,Sub1_Trial105_1.wav,0,23,8904,3.453538977312448,True,4.668
1,14,1,m,7,2021-03-24 10:33:35.351841,Sub1_Trial105_1.wav,0,24,10000,2.1020857567492177,True,4.668
1,14,1,m,7,2021-03-24 10:33:35.351841,Sub1_Trial240_1.wav,1,0,100,2.2211992368576965,False,4.668
1,14,1,m,7,2021-03-24 10:33:35.351841,Sub1_Trial240_1.wav,1,1,191,-0.9436189483195444,False,4.668
1,14,1,m,7,2021-03-24 10:33:35.351841,Sub1_Trial240_1.wav,1,2,293,-0.6736583838968899,False,4.668
1,14,1,m,7,2021-03-24 10:33:35.351841,Sub1_Trial240_1.wav,1,3,406,6.295047027462298,False,4.668
1,14,1,m,7,2021-03-24 10:33:35.351841,Sub1_Trial240_1.wav,1,4,533,3.3234035458846103,False,4.668
1,14,1,m,7,2021-03-24 10:33:35.351841,Sub1_Trial240_1.wav,1,5,673,-1.9289585599095271,False,4.668
1,14,1,m,7,2021-03-24 10:33:35.351841,Sub1_Trial240_1.wav,1,6,830,-2.0388285291378283,False,4.668
1,14,1,m,7,2021-03-24 10:33:35.351841,Sub1_Trial240_1.wav,1,7,1004,-4.635606550407086,False,4.668
1,14,1,m,7,2021-03-24 10:33:35.351841,Sub1_Trial240_1.wav,1,8,1199,3.907966477749238,False,4.668
1,14,1,m,7,2021-03-24 10:33:35.351841,Sub1_Trial240_1.wav,1,9,1416,0.8046666348345282,False,4.668
1,14,1,m,7,2021-03-24 10:33:35.351841,Sub1_Trial240_1.wav,1,10,1657,3.8416457707364824,False,4.668
1,14,1,m,7,2021-03-24 10:33:35.351841,Sub1_Trial240_1.wav,1,11,1926,-3.2108524773177405,False,4.668
1,14,1,m,7,2021-03-24 10:33:35.351841,Sub1_Trial240_1.wav,1,12,2226,-4.571939383826611,False,4.668
1,14,1,m,7,2021-03-24 10:33:35.351841,Sub1_Trial240_1.wav,1,13,2560,6.345291137168835,False,4.668
1,14,1,m,7,2021-03-24 10:33:35.351841,Sub1_Trial240_1.wav,1,14,2932,-6.039344926262858,False,4.668
1,14,1,m,7,2021-03-24 10:33:35.351841,Sub1_Trial240_1.wav,1,15,3346,2.2993812108760343,False,4.668
1,14,1,m,7,2021-03-24 10:33:35.351841,Sub1_Trial240_1.wav,1,16,3808,-6.1625036225921646,False,4.668
1,14,1,m,7,2021-03-24 10:33:35.351841,Sub1_Trial240_1.wav,1,17,4322,-1.4314204202648968,False,4.668
1,14,1,m,7,2021-03-24 10:33:35.351841,Sub1_Trial240_1.wav,1,18,4895,-2.8887789520031304,False,4.668
1,14,1,m,7,2021-03-24 10:33:35.351841,Sub1_Trial240_1.wav,1,19,5534,1.8740810581394682,False,4.668
1,14,1,m,7,2021-03-24 10:33:35.351841,Sub1_Trial240_1.wav,1,20,6245,7.140568457891848,False,4.668
1,14,1,m,7,2021-03-24 10:33:35.351841,Sub1_Trial240_1.wav,1,21,7037,-0.7708313202198457,False,4.668
1,14,1,m,7,2021-03-24 10:33:35.351841,Sub1_Trial240_1.wav,1,22,7920,-2.802314544225289,False,4.668
1,14,1,m,7,2021-03-24 10:33:35.351841,Sub1_Trial240_1.wav,1,23,8904,-4.2635214179470085,False,4.668
1,14,1,m,7,2021-03-24 10:33:35.351841,Sub1_Trial240_1.wav,1,24,10000,-1.4995322068045556,False,4.668
1,15,1,m,7,2021-03-24 10:33:35.351841,Sub1_Trial106_0.wav,0,0,100,-2.6239968360626293,False,2.726
1,15,1,m,7,2021-03-24 10:33:35.351841,Sub1_Trial106_0.wav,0,1,191,5.01979584550706,False,2.726
1,15,1,m,7,2021-03-24 10:33:35.351841,Sub1_Trial106_0.wav,0,2,293,1.2221195763272419,False,2.726
1,15,1,m,7,2021-03-24 10:33:35.351841,Sub1_Trial106_0.wav,0,3,406,-0.8161412075173348,False,2.726
1,15,1,m,7,2021-03-24 10:33:35.351841,Sub1_Trial106_0.wav,0,4,533,-9.61409579110679,False,2.726
1,15,1,m,7,2021-03-24 10:33:35.351841,Sub1_Trial106_0.wav,0,5,673,-9.377808193902824,False,2.726
1,15,1,m,7,2021-03-24 10:33:35.351841,Sub1_Trial106_0.wav,0,6,830,-1.9059301709519125,False,2.726
1,15,1,m,7,2021-03-24 10:33:35.351841,Sub1_Trial106_0.wav,0,7,1004,5.051118860391124,False,2.726
1,15,1,m,7,2021-03-24 10:33:35.351841,Sub1_Trial106_0.wav,0,8,1199,-3.162464919185622,False,2.726
1,15,1,m,7,2021-03-24 10:33:35.351841,Sub1_Trial106_0.wav,0,9,1416,-2.151796101470757,False,2.726
1,15,1,m,7,2021-03-24 10:33:35.351841,Sub1_Trial106_0.wav,0,10,1657,2.420869701364951,False,2.726
1,15,1,m,7,2021-03-24 10:33:35.351841,Sub1_Trial106_0.wav,0,11,1926,-0.7369322201790556,False,2.726
1,15,1,m,7,2021-03-24 10:33:35.351841,Sub1_Trial106_0.wav,0,12,2226,-0.22202853189559818,False,2.726
1,15,1,m,7,2021-03-24 10:33:35.351841,Sub1_Trial106_0.wav,0,13,2560,-4.822472944446147,False,2.726
1,15,1,m,7,2021-03-24 10:33:35.351841,Sub1_Trial106_0.wav,0,14,2932,-3.6034799126289734,False,2.726
1,15,1,m,7,2021-03-24 10:33:35.351841,Sub1_Trial106_0.wav,0,15,3346,-0.7540450253756069,False,2.726
1,15,1,m,7,2021-03-24 10:33:35.351841,Sub1_Trial106_0.wav,0,16,3808,-1.9672801084931235,False,2.726
1,15,1,m,7,2021-03-24 10:33:35.351841,Sub1_Trial106_0.wav,0,17,4322,10.774611625336076,False,2.726
1,15,1,m,7,2021-03-24 10:33:35.351841,Sub1_Trial106_0.wav,0,18,4895,-0.704578921320515,False,2.726
1,15,1,m,7,2021-03-24 10:33:35.351841,Sub1_Trial106_0.wav,0,19,5534,6.590125215753577,False,2.726
1,15,1,m,7,2021-03-24 10:33:35.351841,Sub1_Trial106_0.wav,0,20,6245,3.157493200721948,False,2.726
1,15,1,m,7,2021-03-24 10:33:35.351841,Sub1_Trial106_0.wav,0,21,7037,1.6703713954653652,False,2.726
1,15,1,m,7,2021-03-24 10:33:35.351841,Sub1_Trial106_0.wav,0,22,7920,1.4298635096241774,False,2.726
1,15,1,m,7,2021-03-24 10:33:35.351841,Sub1_Trial106_0.wav,0,23,8904,1.3586112739488574,False,2.726
1,15,1,m,7,2021-03-24 10:33:35.351841,Sub1_Trial106_0.wav,0,24,10000,-3.512757009693248,False,2.726
1,15,1,m,7,2021-03-24 10:33:35.351841,Sub1_Trial241_0.wav,1,0,100,1.3835780277746923,True,2.726
1,15,1,m,7,2021-03-24 10:33:35.351841,Sub1_Trial241_0.wav,1,1,191,11.974250553873853,True,2.726
1,15,1,m,7,2021-03-24 10:33:35.351841,Sub1_Trial241_0.wav,1,2,293,1.608350999123299,True,2.726
1,15,1,m,7,2021-03-24 10:33:35.351841,Sub1_Trial241_0.wav,1,3,406,-5.005332067732594,True,2.726
1,15,1,m,7,2021-03-24 10:33:35.351841,Sub1_Trial241_0.wav,1,4,533,-2.936827209303132,True,2.726
1,15,1,m,7,2021-03-24 10:33:35.351841,Sub1_Trial241_0.wav,1,5,673,8.646072150828235,True,2.726
1,15,1,m,7,2021-03-24 10:33:35.351841,Sub1_Trial241_0.wav,1,6,830,-3.5217193428797366,True,2.726
1,15,1,m,7,2021-03-24 10:33:35.351841,Sub1_Trial241_0.wav,1,7,1004,-1.7622586117910264,True,2.726
1,15,1,m,7,2021-03-24 10:33:35.351841,Sub1_Trial241_0.wav,1,8,1199,-7.168601498674274,True,2.726
1,15,1,m,7,2021-03-24 10:33:35.351841,Sub1_Trial241_0.wav,1,9,1416,3.5608524442401865,True,2.726
1,15,1,m,7,2021-03-24 10:33:35.351841,Sub1_Trial241_0.wav,1,10,1657,7.132228064194043,True,2.726
1,15,1,m,7,2021-03-24 10:33:35.351841,Sub1_Trial241_0.wav,1,11,1926,2.9307454563728785,True,2.726
1,15,1,m,7,2021-03-24 10:33:35.351841,Sub1_Trial241_0.wav,1,12,2226,-2.0743644380811,True,2.726
1,15,1,m,7,2021-03-24 10:33:35.351841,Sub1_Trial241_0.wav,1,13,2560,8.75246023966308,True,2.726
1,15,1,m,7,2021-03-24 10:33:35.351841,Sub1_Trial241_0.wav,1,14,2932,-4.305645715125993,True,2.726
1,15,1,m,7,2021-03-24 10:33:35.351841,Sub1_Trial241_0.wav,1,15,3346,-9.939800337038452,True,2.726
1,15,1,m,7,2021-03-24 10:33:35.351841,Sub1_Trial241_0.wav,1,16,3808,2.2111126165815804,True,2.726
1,15,1,m,7,2021-03-24 10:33:35.351841,Sub1_Trial241_0.wav,1,17,4322,5.615788023941814,True,2.726
1,15,1,m,7,2021-03-24 10:33:35.351841,Sub1_Trial241_0.wav,1,18,4895,-6.5175402245094896,True,2.726
1,15,1,m,7,2021-03-24 10:33:35.351841,Sub1_Trial241_0.wav,1,19,5534,6.136767800131011,True,2.726
1,15,1,m,7,2021-03-24 10:33:35.351841,Sub1_Trial241_0.wav,1,20,6245,4.4183816427157705,True,2.726
1,15,1,m,7,2021-03-24 10:33:35.351841,Sub1_Trial241_0.wav,1,21,7037,5.044151029287635,True,2.726
1,15,1,m,7,2021-03-24 10:33:35.351841,Sub1_Trial241_0.wav,1,22,7920,5.832374177684399,True,2.726
1,15,1,m,7,2021-03-24 10:33:35.351841,Sub1_Trial241_0.wav,1,23,8904,-3.9685162355056742,True,2.726
1,15,1,m,7,2021-03-24 10:33:35.351841,Sub1_Trial241_0.wav,1,24,10000,-2.8460793799535375,True,2.726
1,16,1,m,7,2021-03-24 10:33:35.351841,Sub1_Trial106_1.wav,0,0,100,-6.362043417553425,True,4.869
1,16,1,m,7,2021-03-24 10:33:35.351841,Sub1_Trial106_1.wav,0,1,191,3.8208309534139606,True,4.869
1,16,1,m,7,2021-03-24 10:33:35.351841,Sub1_Trial106_1.wav,0,2,293,4.8757089088690915,True,4.869
1,16,1,m,7,2021-03-24 10:33:35.351841,Sub1_Trial106_1.wav,0,3,406,-4.067715635785543,True,4.869
1,16,1,m,7,2021-03-24 10:33:35.351841,Sub1_Trial106_1.wav,0,4,533,-2.0518404845894684,True,4.869
1,16,1,m,7,2021-03-24 10:33:35.351841,Sub1_Trial106_1.wav,0,5,673,9.093878893454736,True,4.869
1,16,1,m,7,2021-03-24 10:33:35.351841,Sub1_Trial106_1.wav,0,6,830,6.493618844140938,True,4.869
1,16,1,m,7,2021-03-24 10:33:35.351841,Sub1_Trial106_1.wav,0,7,1004,-0.7499400550829354,True,4.869
1,16,1,m,7,2021-03-24 10:33:35.351841,Sub1_Trial106_1.wav,0,8,1199,5.5634122003440565,True,4.869
1,16,1,m,7,2021-03-24 10:33:35.351841,Sub1_Trial106_1.wav,0,9,1416,7.7791957164794425,True,4.869
1,16,1,m,7,2021-03-24 10:33:35.351841,Sub1_Trial106_1.wav,0,10,1657,6.510319066345421,True,4.869
1,16,1,m,7,2021-03-24 10:33:35.351841,Sub1_Trial106_1.wav,0,11,1926,-11.058783894003401,True,4.869
1,16,1,m,7,2021-03-24 10:33:35.351841,Sub1_Trial106_1.wav,0,12,2226,0.3844357433420552,True,4.869
1,16,1,m,7,2021-03-24 10:33:35.351841,Sub1_Trial106_1.wav,0,13,2560,6.8760216770255305,True,4.869
1,16,1,m,7,2021-03-24 10:33:35.351841,Sub1_Trial106_1.wav,0,14,2932,-8.410375894136116,True,4.869
1,16,1,m,7,2021-03-24 10:33:35.351841,Sub1_Trial106_1.wav,0,15,3346,-4.157540390890099,True,4.869
1,16,1,m,7,2021-03-24 10:33:35.351841,Sub1_Trial106_1.wav,0,16,3808,-3.2065102390154676,True,4.869
1,16,1,m,7,2021-03-24 10:33:35.351841,Sub1_Trial106_1.wav,0,17,4322,-5.050918982857475,True,4.869
1,16,1,m,7,2021-03-24 10:33:35.351841,Sub1_Trial106_1.wav,0,18,4895,-7.583132828955719,True,4.869
1,16,1,m,7,2021-03-24 10:33:35.351841,Sub1_Trial106_1.wav,0,19,5534,-4.884118596959778,True,4.869
1,16,1,m,7,2021-03-24 10:33:35.351841,Sub1_Trial106_1.wav,0,20,6245,3.440107698771962,True,4.869
1,16,1,m,7,2021-03-24 10:33:35.351841,Sub1_Trial106_1.wav,0,21,7037,-0.8852609345681686,True,4.869
1,16,1,m,7,2021-03-24 10:33:35.351841,Sub1_Trial106_1.wav,0,22,7920,2.412800022303235,True,4.869
1,16,1,m,7,2021-03-24 10:33:35.351841,Sub1_Trial106_1.wav,0,23,8904,-1.690481150373343,True,4.869
1,16,1,m,7,2021-03-24 10:33:35.351841,Sub1_Trial106_1.wav,0,24,10000,-0.022000542616504755,True,4.869
1,16,1,m,7,2021-03-24 10:33:35.351841,Sub1_Trial241_1.wav,1,0,100,7.317916715310937,False,4.869
1,16,1,m,7,2021-03-24 10:33:35.351841,Sub1_Trial241_1.wav,1,1,191,6.7624101346867,False,4.869
1,16,1,m,7,2021-03-24 10:33:35.351841,Sub1_Trial241_1.wav,1,2,293,0.01975194335156611,False,4.869
1,16,1,m,7,2021-03-24 10:33:35.351841,Sub1_Trial241_1.wav,1,3,406,-4.223838791559819,False,4.869
1,16,1,m,7,2021-03-24 10:33:35.351841,Sub1_Trial241_1.wav,1,4,533,6.146874932457064,False,4.869
1,16,1,m,7,2021-03-24 10:33:35.351841,Sub1_Trial241_1.wav,1,5,673,-7.935729252036142,False,4.869
1,16,1,m,7,2021-03-24 10:33:35.351841,Sub1_Trial241_1.wav,1,6,830,-8.890432534462333,False,4.869
1,16,1,m,7,2021-03-24 10:33:35.351841,Sub1_Trial241_1.wav,1,7,1004,7.042367931349572,False,4.869
1,16,1,m,7,2021-03-24 10:33:35.351841,Sub1_Trial241_1.wav,1,8,1199,6.565394897998341,False,4.869
1,16,1,m,7,2021-03-24 10:33:35.351841,Sub1_Trial241_1.wav,1,9,1416,-2.4058780169854272,False,4.869
1,16,1,m,7,2021-03-24 10:33:35.351841,Sub1_Trial241_1.wav,1,10,1657,8.104530373353864,False,4.869
1,16,1,m,7,2021-03-24 10:33:35.351841,Sub1_Trial241_1.wav,1,11,1926,1.1600551832689658,False,4.869
1,16,1,m,7,2021-03-24 10:33:35.351841,Sub1_Trial241_1.wav,1,12,2226,-2.328543335871944,False,4.869
1,16,1,m,7,2021-03-24 10:33:35.351841,Sub1_Trial241_1.wav,1,13,2560,-5.398115822219536,False,4.869
1,16,1,m,7,2021-03-24 10:33:35.351841,Sub1_Trial241_1.wav,1,14,2932,-1.8751989206357602,False,4.869
1,16,1,m,7,2021-03-24 10:33:35.351841,Sub1_Trial241_1.wav,1,15,3346,5.504524912882696,False,4.869
1,16,1,m,7,2021-03-24 10:33:35.351841,Sub1_Trial241_1.wav,1,16,3808,7.576747648124327,False,4.869
1,16,1,m,7,2021-03-24 10:33:35.351841,Sub1_Trial241_1.wav,1,17,4322,-10.878375865675453,False,4.869
1,16,1,m,7,2021-03-24 10:33:35.351841,Sub1_Trial241_1.wav,1,18,4895,-0.16273557208063322,False,4.869
1,16,1,m,7,2021-03-24 10:33:35.351841,Sub1_Trial241_1.wav,1,19,5534,-1.698506744392455,False,4.869
1,16,1,m,7,2021-03-24 10:33:35.351841,Sub1_Trial241_1.wav,1,20,6245,-0.8745444838896446,False,4.869
1,16,1,m,7,2021-03-24 10:33:35.351841,Sub1_Trial241_1.wav,1,21,7037,-8.586358299029662,False,4.869
1,16,1,m,7,2021-03-24 10:33:35.351841,Sub1_Trial241_1.wav,1,22,7920,-3.0281540145870744,False,4.869
1,16,1,m,7,2021-03-24 10:33:35.351841,Sub1_Trial241_1.wav,1,23,8904,-4.661777242448629,False,4.869
1,16,1,m,7,2021-03-24 10:33:35.351841,Sub1_Trial241_1.wav,1,24,10000,-0.2813548423288792,False,4.869
1,17,1,m,7,2021-03-24 10:33:35.351841,Sub1_Trial107_0.wav,0,0,100,-3.0482937160103747,True,7.338
1,17,1,m,7,2021-03-24 10:33:35.351841,Sub1_Trial107_0.wav,0,1,191,5.849494215874403,True,7.338
1,17,1,m,7,2021-03-24 10:33:35.351841,Sub1_Trial107_0.wav,0,2,293,3.4247778322335405,True,7.338
1,17,1,m,7,2021-03-24 10:33:35.351841,Sub1_Trial107_0.wav,0,3,406,1.789382511660236,True,7.338
1,17,1,m,7,2021-03-24 10:33:35.351841,Sub1_Trial107_0.wav,0,4,533,-3.651708008464904,True,7.338
1,17,1,m,7,2021-03-24 10:33:35.351841,Sub1_Trial107_0.wav,0,5,673,-2.85717075194535,True,7.338
1,17,1,m,7,2021-03-24 10:33:35.351841,Sub1_Trial107_0.wav,0,6,830,-0.7419074848794227,True,7.338
1,17,1,m,7,2021-03-24 10:33:35.351841,Sub1_Trial107_0.wav,0,7,1004,4.59876884005426,True,7.338
1,17,1,m,7,2021-03-24 10:33:35.351841,Sub1_Trial107_0.wav,0,8,1199,1.2851598252301921,True,7.338
1,17,1,m,7,2021-03-24 10:33:35.351841,Sub1_Trial107_0.wav,0,9,1416,-0.7345314827498539,True,7.338
1,17,1,m,7,2021-03-24 10:33:35.351841,Sub1_Trial107_0.wav,0,10,1657,2.255022249141098,True,7.338
1,17,1,m,7,2021-03-24 10:33:35.351841,Sub1_Trial107_0.wav,0,11,1926,9.260162111428055,True,7.338
1,17,1,m,7,2021-03-24 10:33:35.351841,Sub1_Trial107_0.wav,0,12,2226,-1.7530859278288304,True,7.338
1,17,1,m,7,2021-03-24 10:33:35.351841,Sub1_Trial107_0.wav,0,13,2560,1.521990994899987,True,7.338
1,17,1,m,7,2021-03-24 10:33:35.351841,Sub1_Trial107_0.wav,0,14,2932,3.172410665999734,True,7.338
1,17,1,m,7,2021-03-24 10:33:35.351841,Sub1_Trial107_0.wav,0,15,3346,-0.17499896736402096,True,7.338
1,17,1,m,7,2021-03-24 10:33:35.351841,Sub1_Trial107_0.wav,0,16,3808,7.661671311893194,True,7.338
1,17,1,m,7,2021-03-24 10:33:35.351841,Sub1_Trial107_0.wav,0,17,4322,-1.4312588213421242,True,7.338
1,17,1,m,7,2021-03-24 10:33:35.351841,Sub1_Trial107_0.wav,0,18,4895,6.527917568816532,True,7.338
1,17,1,m,7,2021-03-24 10:33:35.351841,Sub1_Trial107_0.wav,0,19,5534,10.261704583029251,True,7.338
1,17,1,m,7,2021-03-24 10:33:35.351841,Sub1_Trial107_0.wav,0,20,6245,-1.0228794055027657,True,7.338
1,17,1,m,7,2021-03-24 10:33:35.351841,Sub1_Trial107_0.wav,0,21,7037,0.7488630234669059,True,7.338
1,17,1,m,7,2021-03-24 10:33:35.351841,Sub1_Trial107_0.wav,0,22,7920,4.2590319522569,True,7.338
1,17,1,m,7,2021-03-24 10:33:35.351841,Sub1_Trial107_0.wav,0,23,8904,0.5760067004353874,True,7.338
1,17,1,m,7,2021-03-24 10:33:35.351841,Sub1_Trial107_0.wav,0,24,10000,-5.546769926190597,True,7.338
1,17,1,m,7,2021-03-24 10:33:35.351841,Sub1_Trial242_0.wav,1,0,100,-7.445403600679907,False,7.338
1,17,1,m,7,2021-03-24 10:33:35.351841,Sub1_Trial242_0.wav,1,1,191,1.83063243663402,False,7.338
1,17,1,m,7,2021-03-24 10:33:35.351841,Sub1_Trial242_0.wav,1,2,293,2.2652347131919544,False,7.338
1,17,1,m,7,2021-03-24 10:33:35.351841,Sub1_Trial242_0.wav,1,3,406,3.0273697414773277,False,7.338
1,17,1,m,7,2021-03-24 10:33:35.351841,Sub1_Trial242_0.wav,1,4,533,-3.13542794051072,False,7.338
1,17,1,m,7,2021-03-24 10:33:35.351841,Sub1_Trial242_0.wav,1,5,673,-4.9708734768209535,False,7.338
1,17,1,m,7,2021-03-24 10:33:35.351841,Sub1_Trial242_0.wav,1,6,830,1.7543865920292574,False,7.338
1,17,1,m,7,2021-03-24 10:33:35.351841,Sub1_Trial242_0.wav,1,7,1004,-4.455582883738768,False,7.338
1,17,1,m,7,2021-03-24 10:33:35.351841,Sub1_Trial242_0.wav,1,8,1199,4.1115042437509155,False,7.338
1,17,1,m,7,2021-03-24 10:33:35.351841,Sub1_Trial242_0.wav,1,9,1416,5.482091023480394,False,7.338
1,17,1,m,7,2021-03-24 10:33:35.351841,Sub1_Trial242_0.wav,1,10,1657,1.6706258368062517,False,7.338
1,17,1,m,7,2021-03-24 10:33:35.351841,Sub1_Trial242_0.wav,1,11,1926,-5.168462336732129,False,7.338
1,17,1,m,7,2021-03-24 10:33:35.351841,Sub1_Trial242_0.wav,1,12,2226,-8.387319132878675,False,7.338
1,17,1,m,7,2021-03-24 10:33:35.351841,Sub1_Trial242_0.wav,1,13,2560,-4.569687828520317,False,7.338
1,17,1,m,7,2021-03-24 10:33:35.351841,Sub1_Trial242_0.wav,1,14,2932,0.8188718055611734,False,7.338
1,17,1,m,7,2021-03-24 10:33:35.351841,Sub1_Trial242_0.wav,1,15,3346,-0.7837386198629999,False,7.338
1,17,1,m,7,2021-03-24 10:33:35.351841,Sub1_Trial242_0.wav,1,16,3808,-8.051394162001715,False,7.338
1,17,1,m,7,2021-03-24 10:33:35.351841,Sub1_Trial242_0.wav,1,17,4322,-4.653227728472321,False,7.338
1,17,1,m,7,2021-03-24 10:33:35.351841,Sub1_Trial242_0.wav,1,18,4895,-2.6742492834350036,False,7.338
1,17,1,m,7,2021-03-24 10:33:35.351841,Sub1_Trial242_0.wav,1,19,5534,1.368854726633343,False,7.338
1,17,1,m,7,2021-03-24 10:33:35.351841,Sub1_Trial242_0.wav,1,20,6245,-2.1315734859890827,False,7.338
1,17,1,m,7,2021-03-24 10:33:35.351841,Sub1_Trial242_0.wav,1,21,7037,9.337922567946054,False,7.338
1,17,1,m,7,2021-03-24 10:33:35.351841,Sub1_Trial242_0.wav,1,22,7920,-0.5326055522309842,False,7.338
1,17,1,m,7,2021-03-24 10:33:35.351841,Sub1_Trial242_0.wav,1,23,8904,12.302245147902067,False,7.338
1,17,1,m,7,2021-03-24 10:33:35.351841,Sub1_Trial242_0.wav,1,24,10000,1.2719430667093943,False,7.338
1,18,1,m,7,2021-03-24 10:33:35.351841,Sub1_Trial107_1.wav,0,0,100,-10.924468057675634,True,3.851
1,18,1,m,7,2021-03-24 10:33:35.351841,Sub1_Trial107_1.wav,0,1,191,3.860414871311743,True,3.851
1,18,1,m,7,2021-03-24 10:33:35.351841,Sub1_Trial107_1.wav,0,2,293,-0.016923365932372342,True,3.851
1,18,1,m,7,2021-03-24 10:33:35.351841,Sub1_Trial107_1.wav,0,3,406,7.3338000500488825,True,3.851
1,18,1,m,7,2021-03-24 10:33:35.351841,Sub1_Trial107_1.wav,0,4,533,6.857540986248169,True,3.851
1,18,1,m,7,2021-03-24 10:33:35.351841,Sub1_Trial107_1.wav,0,5,673,-2.133533225335784,True,3.851
1,18,1,m,7,2021-03-24 10:33:35.351841,Sub1_Trial107_1.wav,0,6,830,-2.899868569782918,True,3.851
1,18,1,m,7,2021-03-24 10:33:35.351841,Sub1_Trial107_1.wav,0,7,1004,0.758673612514291,True,3.851
1,18,1,m,7,2021-03-24 10:33:35.351841,Sub1_Trial107_1.wav,0,8,1199,-0.6290954784906218,True,3.851
1,18,1,m,7,2021-03-24 10:33:35.351841,Sub1_Trial107_1.wav,0,9,1416,-2.1680427641343765,True,3.851
1,18,1,m,7,2021-03-24 10:33:35.351841,Sub1_Trial107_1.wav,0,10,1657,6.246965928443119,True,3.851
1,18,1,m,7,2021-03-24 10:33:35.351841,Sub1_Trial107_1.wav,0,11,1926,-6.796658103521345,True,3.851
1,18,1,m,7,2021-03-24 10:33:35.351841,Sub1_Trial107_1.wav,0,12,2226,-1.1595560084528853,True,3.851
1,18,1,m,7,2021-03-24 10:33:35.351841,Sub1_Trial107_1.wav,0,13,2560,-4.07493800631576,True,3.851
1,18,1,m,7,2021-03-24 10:33:35.351841,Sub1_Trial107_1.wav,0,14,2932,6.448572447175192,True,3.851
1,18,1,m,7,2021-03-24 10:33:35.351841,Sub1_Trial107_1.wav,0,15,3346,-1.2662304391978638,True,3.851
1,18,1,m,7,2021-03-24 10:33:35.351841,Sub1_Trial107_1.wav,0,16,3808,5.575578223005893,True,3.851
1,18,1,m,7,2021-03-24 10:33:35.351841,Sub1_Trial107_1.wav,0,17,4322,8.887389092294072,True,3.851
1,18,1,m,7,2021-03-24 10:33:35.351841,Sub1_Trial107_1.wav,0,18,4895,8.338195813233185,True,3.851
1,18,1,m,7,2021-03-24 10:33:35.351841,Sub1_Trial107_1.wav,0,19,5534,0.2255403511979316,True,3.851
1,18,1,m,7,2021-03-24 10:33:35.351841,Sub1_Trial107_1.wav,0,20,6245,6.2117967999666135,True,3.851
1,18,1,m,7,2021-03-24 10:33:35.351841,Sub1_Trial107_1.wav,0,21,7037,-5.476525474370877,True,3.851
1,18,1,m,7,2021-03-24 10:33:35.351841,Sub1_Trial107_1.wav,0,22,7920,-3.2603388019122423,True,3.851
1,18,1,m,7,2021-03-24 10:33:35.351841,Sub1_Trial107_1.wav,0,23,8904,-3.86784450134925,True,3.851
1,18,1,m,7,2021-03-24 10:33:35.351841,Sub1_Trial107_1.wav,0,24,10000,-1.200455624639014,True,3.851
1,18,1,m,7,2021-03-24 10:33:35.351841,Sub1_Trial242_1.wav,1,0,100,-2.6249897177424852,False,3.851
1,18,1,m,7,2021-03-24 10:33:35.351841,Sub1_Trial242_1.wav,1,1,191,5.282356351964772,False,3.851
1,18,1,m,7,2021-03-24 10:33:35.351841,Sub1_Trial242_1.wav,1,2,293,-0.7734723860176764,False,3.851
1,18,1,m,7,2021-03-24 10:33:35.351841,Sub1_Trial242_1.wav,1,3,406,8.207043730541582,False,3.851
1,18,1,m,7,2021-03-24 10:33:35.351841,Sub1_Trial242_1.wav,1,4,533,1.9337330312482315,False,3.851
1,18,1,m,7,2021-03-24 10:33:35.351841,Sub1_Trial242_1.wav,1,5,673,-3.493214420307449,False,3.851
1,18,1,m,7,2021-03-24 10:33:35.351841,Sub1_Trial242_1.wav,1,6,830,4.04065555728957,False,3.851
1,18,1,m,7,2021-03-24 10:33:35.351841,Sub1_Trial242_1.wav,1,7,1004,-7.024829475361672,False,3.851
1,18,1,m,7,2021-03-24 10:33:35.351841,Sub1_Trial242_1.wav,1,8,1199,-2.267877102649911,False,3.851
1,18,1,m,7,2021-03-24 10:33:35.351841,Sub1_Trial242_1.wav,1,9,1416,-4.821471227386126,False,3.851
1,18,1,m,7,2021-03-24 10:33:35.351841,Sub1_Trial242_1.wav,1,10,1657,-2.2135267615930223,False,3.851
1,18,1,m,7,2021-03-24 10:33:35.351841,Sub1_Trial242_1.wav,1,11,1926,-0.9157785918719155,False,3.851
1,18,1,m,7,2021-03-24 10:33:35.351841,Sub1_Trial242_1.wav,1,12,2226,-7.376126048960022,False,3.851
1,18,1,m,7,2021-03-24 10:33:35.351841,Sub1_Trial242_1.wav,1,13,2560,-1.6220786175268107,False,3.851
1,18,1,m,7,2021-03-24 10:33:35.351841,Sub1_Trial242_1.wav,1,14,2932,0.549228049630152,False,3.851
1,18,1,m,7,2021-03-24 10:33:35.351841,Sub1_Trial242_1.wav,1,15,3346,-5.816410369992793,False,3.851
1,18,1,m,7,2021-03-24 10:33:35.351841,Sub1_Trial242_1.wav,1,16,3808,-5.315728855989271,False,3.851
1,18,1,m,7,2021-03-24 10:33:35.351841,Sub1_Trial242_1.wav,1,17,4322,0.4053647800891942,False,3.851
1,18,1,m,7,2021-03-24 10:33:35.351841,Sub1_Trial242_1.wav,1,18,4895,-0.004774205544069315,False,3.851
1,18,1,m,7,2021-03-24 10:33:35.351841,Sub1_Trial242_1.wav,1,19,5534,0.3594235158592188,False,3.851
1,18,1,m,7,2021-03-24 10:33:35.351841,Sub1_Trial242_1.wav,1,20,6245,4.091761662360495,False,3.851
1,18,1,m,7,2021-03-24 10:33:35.351841,Sub1_Trial242_1.wav,1,21,7037,7.493399654444122,False,3.851
1,18,1,m,7,2021-03-24 10:33:35.351841,Sub1_Trial242_1.wav,1,22,7920,4.195978396110959,False,3.851
1,18,1,m,7,2021-03-24 10:33:35.351841,Sub1_Trial242_1.wav,1,23,8904,-5.426953072458431,False,3.851
1,18,1,m,7,2021-03-24 10:33:35.351841,Sub1_Trial242_1.wav,1,24,10000,-3.27719437017169,False,3.851
1,19,1,m,7,2021-03-24 10:33:35.351841,Sub1_Trial108_0.wav,0,0,100,-0.6063244341303744,False,3.566
1,19,1,m,7,2021-03-24 10:33:35.351841,Sub1_Trial108_0.wav,0,1,191,-5.6196619534705565,False,3.566
1,19,1,m,7,2021-03-24 10:33:35.351841,Sub1_Trial108_0.wav,0,2,293,8.855573085955076,False,3.566
1,19,1,m,7,2021-03-24 10:33:35.351841,Sub1_Trial108_0.wav,0,3,406,0.4541295404304747,False,3.566
1,19,1,m,7,2021-03-24 10:33:35.351841,Sub1_Trial108_0.wav,0,4,533,-8.814944877104889,False,3.566
1,19,1,m,7,2021-03-24 10:33:35.351841,Sub1_Trial108_0.wav,0,5,673,1.550300697309441,False,3.566
1,19,1,m,7,2021-03-24 10:33:35.351841,Sub1_Trial108_0.wav,0,6,830,-2.194135358662324,False,3.566
1,19,1,m,7,2021-03-24 10:33:35.351841,Sub1_Trial108_0.wav,0,7,1004,-0.4774198909745181,False,3.566
1,19,1,m,7,2021-03-24 10:33:35.351841,Sub1_Trial108_0.wav,0,8,1199,-0.6431084995505647,False,3.566
1,19,1,m,7,2021-03-24 10:33:35.351841,Sub1_Trial108_0.wav,0,9,1416,-3.1938601919856087,False,3.566
1,19,1,m,7,2021-03-24 10:33:35.351841,Sub1_Trial108_0.wav,0,10,1657,-4.5179981600747325,False,3.566
1,19,1,m,7,2021-03-24 10:33:35.351841,Sub1_Trial108_0.wav,0,11,1926,1.626603273747059,False,3.566
1,19,1,m,7,2021-03-24 10:33:35.351841,Sub1_Trial108_0.wav,0,12,2226,-2.4147264345415533,False,3.566
1,19,1,m,7,2021-03-24 10:33:35.351841,Sub1_Trial108_0.wav,0,13,2560,0.3165732663671161,False,3.566
1,19,1,m,7,2021-03-24 10:33:35.351841,Sub1_Trial108_0.wav,0,14,2932,5.167726611301504,False,3.566
1,19,1,m,7,2021-03-24 10:33:35.351841,Sub1_Trial108_0.wav,0,15,3346,-8.814119917520934,False,3.566
1,19,1,m,7,2021-03-24 10:33:35.351841,Sub1_Trial108_0.wav,0,16,3808,-4.27778680624686,False,3.566
1,19,1,m,7,2021-03-24 10:33:35.351841,Sub1_Trial108_0.wav,0,17,4322,4.867826275070434,False,3.566
1,19,1,m,7,2021-03-24 10:33:35.351841,Sub1_Trial108_0.wav,0,18,4895,-8.791004789195327,False,3.566
1,19,1,m,7,2021-03-24 10:33:35.351841,Sub1_Trial108_0.wav,0,19,5534,0.5776625960060102,False,3.566
1,19,1,m,7,2021-03-24 10:33:35.351841,Sub1_Trial108_0.wav,0,20,6245,-6.306316027901747,False,3.566
1,19,1,m,7,2021-03-24 10:33:35.351841,Sub1_Trial108_0.wav,0,21,7037,5.001164759196065,False,3.566
1,19,1,m,7,2021-03-24 10:33:35.351841,Sub1_Trial108_0.wav,0,22,7920,-5.764998766955987,False,3.566
1,19,1,m,7,2021-03-24 10:33:35.351841,Sub1_Trial108_0.wav,0,23,8904,-5.469783571607683,False,3.566
1,19,1,m,7,2021-03-24 10:33:35.351841,Sub1_Trial108_0.wav,0,24,10000,6.473711547171526,False,3.566
1,19,1,m,7,2021-03-24 10:33:35.351841,Sub1_Trial243_0.wav,1,0,100,-11.959710810149417,True,3.566
1,19,1,m,7,2021-03-24 10:33:35.351841,Sub1_Trial243_0.wav,1,1,191,-0.34115495314415595,True,3.566
1,19,1,m,7,2021-03-24 10:33:35.351841,Sub1_Trial243_0.wav,1,2,293,0.36221933451560656,True,3.566
1,19,1,m,7,2021-03-24 10:33:35.351841,Sub1_Trial243_0.wav,1,3,406,8.527829614407468,True,3.566
1,19,1,m,7,2021-03-24 10:33:35.351841,Sub1_Trial243_0.wav,1,4,533,3.5484286952245485,True,3.566
1,19,1,m,7,2021-03-24 10:33:35.351841,Sub1_Trial243_0.wav,1,5,673,0.3426371865223657,True,3.566
1,19,1,m,7,2021-03-24 10:33:35.351841,Sub1_Trial243_0.wav,1,6,830,-0.20711304838182176,True,3.566
1,19,1,m,7,2021-03-24 10:33:35.351841,Sub1_Trial243_0.wav,1,7,1004,-3.621815942283739,True,3.566
1,19,1,m,7,2021-03-24 10:33:35.351841,Sub1_Trial243_0.wav,1,8,1199,2.504010040792139,True,3.566
1,19,1,m,7,2021-03-24 10:33:35.351841,Sub1_Trial243_0.wav,1,9,1416,4.5615328304197975,True,3.566
1,19,1,m,7,2021-03-24 10:33:35.351841,Sub1_Trial243_0.wav,1,10,1657,-8.719840339730332,True,3.566
1,19,1,m,7,2021-03-24 10:33:35.351841,Sub1_Trial243_0.wav,1,11,1926,0.7535633508847173,True,3.566
1,19,1,m,7,2021-03-24 10:33:35.351841,Sub1_Trial243_0.wav,1,12,2226,7.471983036768641,True,3.566
1,19,1,m,7,2021-03-24 10:33:35.351841,Sub1_Trial243_0.wav,1,13,2560,-5.5960008332156965,True,3.566
1,19,1,m,7,2021-03-24 10:33:35.351841,Sub1_Trial243_0.wav,1,14,2932,5.614325849676591,True,3.566
1,19,1,m,7,2021-03-24 10:33:35.351841,Sub1_Trial243_0.wav,1,15,3346,3.3689312346620244,True,3.566
1,19,1,m,7,2021-03-24 10:33:35.351841,Sub1_Trial243_0.wav,1,16,3808,5.242371800865422,True,3.566
1,19,1,m,7,2021-03-24 10:33:35.351841,Sub1_Trial243_0.wav,1,17,4322,7.478784727296674,True,3.566
1,19,1,m,7,2021-03-24 10:33:35.351841,Sub1_Trial243_0.wav,1,18,4895,-1.4719294083837946,True,3.566
1,19,1,m,7,2021-03-24 10:33:35.351841,Sub1_Trial243_0.wav,1,19,5534,-3.4279558708121076,True,3.566
1,19,1,m,7,2021-03-24 10:33:35.351841,Sub1_Trial243_0.wav,1,20,6245,1.8065609218042624,True,3.566
1,19,1,m,7,2021-03-24 10:33:35.351841,Sub1_Trial243_0.wav,1,21,7037,-2.520637661253308,True,3.566
1,19,1,m,7,2021-03-24 10:33:35.351841,Sub1_Trial243_0.wav,1,22,7920,-0.1523806689698668,True,3.566
1,19,1,m,7,2021-03-24 10:33:35.351841,Sub1_Trial243_0.wav,1,23,8904,-5.646735134372394,True,3.566
1,19,1,m,7,2021-03-24 10:33:35.351841,Sub1_Trial243_0.wav,1,24,10000,0.5577397685049463,True,3.566
1,20,1,m,7,2021-03-24 10:33:35.351841,Sub1_Trial108_1.wav,0,0,100,2.6599844799607113,True,2.813
1,20,1,m,7,2021-03-24 10:33:35.351841,Sub1_Trial108_1.wav,0,1,191,-4.058128107865443,True,2.813
1,20,1,m,7,2021-03-24 10:33:35.351841,Sub1_Trial108_1.wav,0,2,293,6.530425513082989,True,2.813
1,20,1,m,7,2021-03-24 10:33:35.351841,Sub1_Trial108_1.wav,0,3,406,2.5537827151666894,True,2.813
1,20,1,m,7,2021-03-24 10:33:35.351841,Sub1_Trial108_1.wav,0,4,533,-0.02770998261319438,True,2.813
1,20,1,m,7,2021-03-24 10:33:35.351841,Sub1_Trial108_1.wav,0,5,673,-2.023104025516595,True,2.813
1,20,1,m,7,2021-03-24 10:33:35.351841,Sub1_Trial108_1.wav,0,6,830,3.9634667738181593,True,2.813
1,20,1,m,7,2021-03-24 10:33:35.351841,Sub1_Trial108_1.wav,0,7,1004,4.1507656392237475,True,2.813
1,20,1,m,7,2021-03-24 10:33:35.351841,Sub1_Trial108_1.wav,0,8,1199,3.676780758604484,True,2.813
1,20,1,m,7,2021-03-24 10:33:35.351841,Sub1_Trial108_1.wav,0,9,1416,-3.609573006695388,True,2.813
1,20,1,m,7,2021-03-24 10:33:35.351841,Sub1_Trial108_1.wav,0,10,1657,-5.4456823191542805,True,2.813
1,20,1,m,7,2021-03-24 10:33:35.351841,Sub1_Trial108_1.wav,0,11,1926,0.4728607410201038,True,2.813
1,20,1,m,7,2021-03-24 10:33:35.351841,Sub1_Trial108_1.wav,0,12,2226,-1.552547463463739,True,2.813
1,20,1,m,7,2021-03-24 10:33:35.351841,Sub1_Trial108_1.wav,0,13,2560,3.3228078867153004,True,2.813
1,20,1,m,7,2021-03-24 10:33:35.351841,Sub1_Trial108_1.wav,0,14,2932,8.616149022798739,True,2.813
1,20,1,m,7,2021-03-24 10:33:35.351841,Sub1_Trial108_1.wav,0,15,3346,7.5906198739681265,True,2.813
