subj,date,session,trial,stim,stim_order,filter,filter_freq,filter_gain,response,rt
10,19-May-2017,1,1,stim.wav,0,0,100,-2.837540033841017,0,3.8412392514705993
10,19-May-2017,1,1,stim.wav,0,1,191,6.9212586410179044,0,3.8412392514705993
10,19-May-2017,1,1,stim.wav,0,2,293,5.463145566966729,0,3.8412392514705993
10,19-May-2017,1,1,stim.wav,0,3,406,2.2435701318940473,0,3.8412392514705993
10,19-May-2017,1,1,stim.wav,0,4,533,1.4383185173164215,0,3.8412392514705993
10,19-May-2017,1,1,stim.wav,0,5,673,-9.123062808075884,0,3.8412392514705993
10,19-May-2017,1,1,stim.wav,0,6,830,5.630433518930607,0,3.8412392514705993
10,19-May-2017,1,1,stim.wav,0,7,1004,-4.378343804272752,0,3.8412392514705993
10,19-May-2017,1,1,stim.wav,0,8,1199,5.743173962912229,0,3.8412392514705993
10,19-May-2017,1,1,stim.wav,0,9,1416,-6.900437431448295,0,3.8412392514705993
10,19-May-2017,1,1,stim.wav,0,10,1657,5.739189138588535,0,3.8412392514705993
10,19-May-2017,1,1,stim.wav,0,11,1926,0.5570131307080696,0,3.8412392514705993
10,19-May-2017,1,1,stim.wav,0,12,2226,7.180010670400685,0,3.8412392514705993
10,19-May-2017,1,1,stim.wav,0,13,2560,-3.2730212353532613,0,3.8412392514705993
10,19-May-2017,1,1,stim.wav,0,14,2932,-5.210161333790015,0,3.8412392514705993
10,19-May-2017,1,1,stim.wav,0,15,3346,-0.16439343347391275,0,3.8412392514705993
10,19-May-2017,1,1,stim.wav,0,16,3808,-3.61062865886589,0,3.8412392514705993
10,19-May-2017,1,1,stim.wav,0,17,4322,6.0332755268181595,0,3.8412392514705993
10,19-May-2017,1,1,stim.wav,0,18,4895,-2.166003178062852,0,3.8412392514705993
10,19-May-2017,1,1,stim.wav,0,19,5534,-1.0944064443660182,0,3.8412392514705993
10,19-May-2017,1,1,stim.wav,0,20,6245,-2.638697475726275,0,3.8412392514705993
10,19-May-2017,1,1,stim.wav,0,21,7037,0.45810708091011976,0,3.8412392514705993
10,19-May-2017,1,1,stim.wav,0,22,7920,-7.333098598848532,0,3.8412392514705993
10,19-May-2017,1,1,stim.wav,0,23,8904,-3.177582732489099,0,3.8412392514705993
10,19-May-2017,1,1,stim.wav,0,24,10000,3.8539373129653627,0,3.8412392514705993
10,19-May-2017,1,1,stim.wav,1,0,100,6.027118338035899,1,3.8412392514705993
10,19-May-2017,1,1,stim.wav,1,1,191,3.3250693208214077,1,3.8412392514705993
10,19-May-2017,1,1,stim.wav,1,2,293,0.18563518485666153,1,3.8412392514705993
10,19-May-2017,1,1,stim.wav,1,3,406,-0.7615710315551121,1,3.8412392514705993
10,19-May-2017,1,1,stim.wav,1,4,533,-3.7513729593946215,1,3.8412392514705993
10,19-May-2017,1,1,stim.wav,1,5,673,-1.0767875421376345,1,3.8412392514705993
10,19-May-2017,1,1,stim.wav,1,6,830,6.386362617379772,1,3.8412392514705993
10,19-May-2017,1,1,stim.wav,1,7,1004,-4.781930196645657,1,3.8412392514705993
10,19-May-2017,1,1,stim.wav,1,8,1199,-5.515955031415248,1,3.8412392514705993
10,19-May-2017,1,1,stim.wav,1,9,1416,-7.326870099771608,1,3.8412392514705993
10,19-May-2017,1,1,stim.wav,1,10,1657,-0.8792254534711187,1,3.8412392514705993
10,19-May-2017,1,1,stim.wav,1,11,1926,-2.6454200606051828,1,3.8412392514705993
10,19-May-2017,1,1,stim.wav,1,12,2226,-8.800126165445766,1,3.8412392514705993
10,19-May-2017,1,1,stim.wav,1,13,2560,-1.7218417991853974,1,3.8412392514705993
10,19-May-2017,1,1,stim.wav,1,14,2932,8.169541864604867,1,3.8412392514705993
10,19-May-2017,1,1,stim.wav,1,15,3346,7.626084580312797,1,3.8412392514705993
10,19-May-2017,1,1,stim.wav,1,16,3808,3.5529219760162705,1,3.8412392514705993
10,19-May-2017,1,1,stim.wav,1,17,4322,-1.2013741228746548,1,3.8412392514705993
10,19-May-2017,1,1,stim.wav,1,18,4895,-9.89998149678408,1,3.8412392514705993
10,19-May-2017,1,1,stim.wav,1,19,5534,-1.0886470591334176,1,3.8412392514705993
10,19-May-2017,1,1,stim.wav,1,20,6245,-6.416779531190404,1,3.8412392514705993
10,19-May-2017,1,1,stim.wav,1,21,7037,-2.1216926867707766,1,3.8412392514705993
10,19-May-2017,1,1,stim.wav,1,22,7920,-1.1282623472693156,1,3.8412392514705993
10,19-May-2017,1,1,stim.wav,1,23,8904,5.525745390444979,1,3.8412392514705993
10,19-May-2017,1,1,stim.wav,1,24,10000,5.082974515434914,1,3.8412392514705993
10,19-May-2017,1,2,stim.wav,0,0,100,4.772728870827412,1,2.3037358046198406
10,19-May-2017,1,2,stim.wav,0,1,191,3.617110069564532,1,2.3037358046198406
10,19-May-2017,1,2,stim.wav,0,2,293,-7.228624839798127,1,2.3037358046198406
10,19-May-2017,1,2,stim.wav,0,3,406,-3.569827331070463,1,2.3037358046198406
10,19-May-2017,1,2,stim.wav,0,4,533,-11.154486944600668,1,2.3037358046198406
10,19-May-2017,1,2,stim.wav,0,5,673,6.016323246571399,1,2.3037358046198406
10,19-May-2017,1,2,stim.wav,0,6,830,-1.8765738957318976,1,2.3037358046198406
10,19-May-2017,1,2,stim.wav,0,7,1004,0.07659339959177769,1,2.3037358046198406
10,19-May-2017,1,2,stim.wav,0,8,1199,4.388848682799572,1,2.3037358046198406
10,19-May-2017,1,2,stim.wav,0,9,1416,-1.1249652060528745,1,2.3037358046198406
10,19-May-2017,1,2,stim.wav,0,10,1657,-2.01057225114836,1,2.3037358046198406
10,19-May-2017,1,2,stim.wav,0,11,1926,-3.8730970750943357,1,2.3037358046198406
10,19-May-2017,1,2,stim.wav,0,12,2226,3.991484177018601,1,2.3037358046198406
10,19-May-2017,1,2,stim.wav,0,13,2560,7.339893490818982,1,2.3037358046198406
10,19-May-2017,1,2,stim.wav,0,14,2932,-2.7894607463849974,1,2.3037358046198406
10,19-May-2017,1,2,stim.wav,0,15,3346,-0.3990282290753408,1,2.3037358046198406
10,19-May-2017,1,2,stim.wav,0,16,3808,-3.1007502386761794,1,2.3037358046198406
10,19-May-2017,1,2,stim.wav,0,17,4322,4.841026652829319,1,2.3037358046198406
10,19-May-2017,1,2,stim.wav,0,18,4895,0.30838590679739386,1,2.3037358046198406
10,19-May-2017,1,2,stim.wav,0,19,5534,4.27449303596201,1,2.3037358046198406
10,19-May-2017,1,2,stim.wav,0,20,6245,3.643902562803047,1,2.3037358046198406
10,19-May-2017,1,2,stim.wav,0,21,7037,3.075981975001037,1,2.3037358046198406
10,19-May-2017,1,2,stim.wav,0,22,7920,-2.623082274783669,1,2.3037358046198406
10,19-May-2017,1,2,stim.wav,0,23,8904,9.470168548415067,1,2.3037358046198406
10,19-May-2017,1,2,stim.wav,0,24,10000,-8.665052482634042,1,2.3037358046198406
10,19-May-2017,1,2,stim.wav,1,0,100,1.292598356592507,0,2.3037358046198406
10,19-May-2017,1,2,stim.wav,1,1,191,3.222584512289198,0,2.3037358046198406
10,19-May-2017,1,2,stim.wav,1,2,293,-4.984444358896074,0,2.3037358046198406
10,19-May-2017,1,2,stim.wav,1,3,406,1.0566641412999442,0,2.3037358046198406
10,19-May-2017,1,2,stim.wav,1,4,533,8.213401681378175,0,2.3037358046198406
10,19-May-2017,1,2,stim.wav,1,5,673,1.0381066114001642,0,2.3037358046198406
10,19-May-2017,1,2,stim.wav,1,6,830,-5.400603364734224,0,2.3037358046198406
10,19-May-2017,1,2,stim.wav,1,7,1004,0.4750468413545736,0,2.3037358046198406
10,19-May-2017,1,2,stim.wav,1,8,1199,1.178221694996108,0,2.3037358046198406
10,19-May-2017,1,2,stim.wav,1,9,1416,-0.45582533761771904,0,2.3037358046198406
10,19-May-2017,1,2,stim.wav,1,10,1657,3.6808596293488827,0,2.3037358046198406
10,19-May-2017,1,2,stim.wav,1,11,1926,-4.147528000798243,0,2.3037358046198406
10,19-May-2017,1,2,stim.wav,1,12,2226,4.294804181705703,0,2.3037358046198406
10,19-May-2017,1,2,stim.wav,1,13,2560,-0.8823338255407603,0,2.3037358046198406
10,19-May-2017,1,2,stim.wav,1,14,2932,0.2335124651487987,0,2.3037358046198406
10,19-May-2017,1,2,stim.wav,1,15,3346,-0.8174189499946918,0,2.3037358046198406
10,19-May-2017,1,2,stim.wav,1,16,3808,3.2333276596956977,0,2.3037358046198406
10,19-May-2017,1,2,stim.wav,1,17,4322,-5.622763001028565,0,2.3037358046198406
10,19-May-2017,1,2,stim.wav,1,18,4895,-3.7092778900794627,0,2.3037358046198406
10,19-May-2017,1,2,stim.wav,1,19,5534,0.499098077483474,0,2.3037358046198406
10,19-May-2017,1,2,stim.wav,1,20,6245,4.894098940376408,0,2.3037358046198406
10,19-May-2017,1,2,stim.wav,1,21,7037,5.3395309965152045,0,2.3037358046198406
10,19-May-2017,1,2,stim.wav,1,22,7920,-1.9302585993981258,0,2.3037358046198406
10,19-May-2017,1,2,stim.wav,1,23,8904,1.2486258391447078,0,2.3037358046198406
10,19-May-2017,1,2,stim.wav,1,24,10000,-0.9477514665136065,0,2.3037358046198406
10,19-May-2017,1,3,stim.wav,0,0,100,-3.21553001645603,0,6.290263151232416
10,19-May-2017,1,3,stim.wav,0,1,191,-8.793284270571851,0,6.290263151232416
10,19-May-2017,1,3,stim.wav,0,2,293,-2.663495804496081,0,6.290263151232416
10,19-May-2017,1,3,stim.wav,0,3,406,-6.841994031793685,0,6.290263151232416
10,19-May-2017,1,3,stim.wav,0,4,533,-0.05688892020679571,0,6.290263151232416
10,19-May-2017,1,3,stim.wav,0,5,673,-5.25888247834896,0,6.290263151232416
10,19-May-2017,1,3,stim.wav,0,6,830,-10.085388194061284,0,6.290263151232416
10,19-May-2017,1,3,stim.wav,0,7,1004,8.649190600167525,0,6.290263151232416
10,19-May-2017,1,3,stim.wav,0,8,1199,-6.463863004076831,0,6.290263151232416
10,19-May-2017,1,3,stim.wav,0,9,1416,1.1965040281147896,0,6.290263151232416
10,19-May-2017,1,3,stim.wav,0,10,1657,-6.288894188753625,0,6.290263151232416
10,19-May-2017,1,3,stim.wav,0,11,1926,-4.930760690106604,0,6.290263151232416
10,19-May-2017,1,3,stim.wav,0,12,2226,-2.242970931139735,0,6.290263151232416
10,19-May-2017,1,3,stim.wav,0,13,2560,-1.126901263221766,0,6.290263151232416
10,19-May-2017,1,3,stim.wav,0,14,2932,6.338915543494778,0,6.290263151232416
10,19-May-2017,1,3,stim.wav,0,15,3346,2.854222226108698,0,6.290263151232416
10,19-May-2017,1,3,stim.wav,0,16,3808,-5.270994688757515,0,6.290263151232416
10,19-May-2017,1,3,stim.wav,0,17,4322,4.663605319841878,0,6.290263151232416
10,19-May-2017,1,3,stim.wav,0,18,4895,3.2025549496887864,0,6.290263151232416
10,19-May-2017,1,3,stim.wav,0,19,5534,2.8664734342853437,0,6.290263151232416
10,19-May-2017,1,3,stim.wav,0,20,6245,-1.2926287473755613,0,6.290263151232416
10,19-May-2017,1,3,stim.wav,0,21,7037,-3.2708612872536706,0,6.290263151232416
10,19-May-2017,1,3,stim.wav,0,22,7920,3.139572142479504,0,6.290263151232416
10,19-May-2017,1,3,stim.wav,0,23,8904,-3.831665325434309,0,6.290263151232416
10,19-May-2017,1,3,stim.wav,0,24,10000,-4.2644330857106105,0,6.290263151232416
10,19-May-2017,1,3,stim.wav,1,0,100,8.341289077683498,1,6.290263151232416
10,19-May-2017,1,3,stim.wav,1,1,191,3.4376845308005506,1,6.290263151232416
10,19-May-2017,1,3,stim.wav,1,2,293,-4.723376742572325,1,6.290263151232416
10,19-May-2017,1,3,stim.wav,1,3,406,4.735108967622043,1,6.290263151232416
10,19-May-2017,1,3,stim.wav,1,4,533,9.050638682171073,1,6.290263151232416
10,19-May-2017,1,3,stim.wav,1,5,673,2.6932632069356917,1,6.290263151232416
10,19-May-2017,1,3,stim.wav,1,6,830,4.528894937877887,1,6.290263151232416
10,19-May-2017,1,3,stim.wav,1,7,1004,-7.0257838965972095,1,6.290263151232416
10,19-May-2017,1,3,stim.wav,1,8,1199,-3.211728702120033,1,6.290263151232416
10,19-May-2017,1,3,stim.wav,1,9,1416,-10.328801410227948,1,6.290263151232416
10,19-May-2017,1,3,stim.wav,1,10,1657,-1.4362260642810896,1,6.290263151232416
10,19-May-2017,1,3,stim.wav,1,11,1926,-1.5823258420165456,1,6.290263151232416
10,19-May-2017,1,3,stim.wav,1,12,2226,1.6968129299462607,1,6.290263151232416
10,19-May-2017,1,3,stim.wav,1,13,2560,5.509780865353368,1,6.290263151232416
10,19-May-2017,1,3,stim.wav,1,14,2932,-2.046016961508858,1,6.290263151232416
10,19-May-2017,1,3,stim.wav,1,15,3346,-4.252024513495146,1,6.290263151232416
10,19-May-2017,1,3,stim.wav,1,16,3808,7.158620588662884,1,6.290263151232416
10,19-May-2017,1,3,stim.wav,1,17,4322,-7.369449024299698,1,6.290263151232416
10,19-May-2017,1,3,stim.wav,1,18,4895,6.204332555120776,1,6.290263151232416
10,19-May-2017,1,3,stim.wav,1,19,5534,3.068921713749981,1,6.290263151232416
10,19-May-2017,1,3,stim.wav,1,20,6245,1.5519797467945697,1,6.290263151232416
10,19-May-2017,1,3,stim.wav,1,21,7037,-5.276614946668109,1,6.290263151232416
10,19-May-2017,1,3,stim.wav,1,22,7920,-6.162666538051255,1,6.290263151232416
10,19-May-2017,1,3,stim.wav,1,23,8904,-5.037276496644834,1,6.290263151232416
10,19-May-2017,1,3,stim.wav,1,24,10000,0.4417720766196155,1,6.290263151232416
10,19-May-2017,1,4,stim.wav,0,0,100,-6.022191194504404,0,3.5373720730848683
10,19-May-2017,1,4,stim.wav,0,1,191,0.68688966638922,0,3.5373720730848683
10,19-May-2017,1,4,stim.wav,0,2,293,4.278428661370547,0,3.5373720730848683
10,19-May-2017,1,4,stim.wav,0,3,406,9.93001095762388,0,3.5373720730848683
10,19-May-2017,1,4,stim.wav,0,4,533,10.163395768876295,0,3.5373720730848683
10,19-May-2017,1,4,stim.wav,0,5,673,6.130296332851124,0,3.5373720730848683
10,19-May-2017,1,4,stim.wav,0,6,830,-3.448724786912227,0,3.5373720730848683
10,19-May-2017,1,4,stim.wav,0,7,1004,-7.181892468248577,0,3.5373720730848683
10,19-May-2017,1,4,stim.wav,0,8,1199,-1.0461803575391673,0,3.5373720730848683
10,19-May-2017,1,4,stim.wav,0,9,1416,1.0703391695784683,0,3.5373720730848683
10,19-May-2017,1,4,stim.wav,0,10,1657,1.7358960700761235,0,3.5373720730848683
10,19-May-2017,1,4,stim.wav,0,11,1926,-2.0606738429580322,0,3.5373720730848683
10,19-May-2017,1,4,stim.wav,0,12,2226,-6.736915908247239,0,3.5373720730848683
10,19-May-2017,1,4,stim.wav,0,13,2560,9.522779302371397,0,3.5373720730848683
10,19-May-2017,1,4,stim.wav,0,14,2932,3.045291538088852,0,3.5373720730848683
10,19-May-2017,1,4,stim.wav,0,15,3346,-0.6390065618495456,0,3.5373720730848683
10,19-May-2017,1,4,stim.wav,0,16,3808,5.586787233932472,0,3.5373720730848683
10,19-May-2017,1,4,stim.wav,0,17,4322,6.024825977986042,0,3.5373720730848683
10,19-May-2017,1,4,stim.wav,0,18,4895,-1.7721657618268707,0,3.5373720730848683
10,19-May-2017,1,4,stim.wav,0,19,5534,1.9504366897756695,0,3.5373720730848683
10,19-May-2017,1,4,stim.wav,0,20,6245,10.486991697626936,0,3.5373720730848683
10,19-May-2017,1,4,stim.wav,0,21,7037,-1.1947405630940324,0,3.5373720730848683
10,19-May-2017,1,4,stim.wav,0,22,7920,-9.478168370507534,0,3.5373720730848683
10,19-May-2017,1,4,stim.wav,0,23,8904,6.217356859780856,0,3.5373720730848683
10,19-May-2017,1,4,stim.wav,0,24,10000,-1.3869854876832732,0,3.5373720730848683
10,19-May-2017,1,4,stim.wav,1,0,100,-2.883496712458302,1,3.5373720730848683
10,19-May-2017,1,4,stim.wav,1,1,191,1.0913808891658143,1,3.5373720730848683
10,19-May-2017,1,4,stim.wav,1,2,293,2.3795236343129003,1,3.5373720730848683
10,19-May-2017,1,4,stim.wav,1,3,406,6.003804401374403,1,3.5373720730848683
10,19-May-2017,1,4,stim.wav,1,4,533,-0.31499463380294934,1,3.5373720730848683
10,19-May-2017,1,4,stim.wav,1,5,673,6.143141186393017,1,3.5373720730848683
10,19-May-2017,1,4,stim.wav,1,6,830,11.406536146473222,1,3.5373720730848683
10,19-May-2017,1,4,stim.wav,1,7,1004,-7.979930406920294,1,3.5373720730848683
10,19-May-2017,1,4,stim.wav,1,8,1199,-2.595205538394814,1,3.5373720730848683
10,19-May-2017,1,4,stim.wav,1,9,1416,-1.5065327276976008,1,3.5373720730848683
10,19-May-2017,1,4,stim.wav,1,10,1657,6.643234370824535,1,3.5373720730848683
10,19-May-2017,1,4,stim.wav,1,11,1926,6.895783402357841,1,3.5373720730848683
10,19-May-2017,1,4,stim.wav,1,12,2226,-4.743281731393537,1,3.5373720730848683
10,19-May-2017,1,4,stim.wav,1,13,2560,-4.315168908371339,1,3.5373720730848683
10,19-May-2017,1,4,stim.wav,1,14,2932,0.6975150190563861,1,3.5373720730848683
10,19-May-2017,1,4,stim.wav,1,15,3346,3.2287743323412395,1,3.5373720730848683
10,19-May-2017,1,4,stim.wav,1,16,3808,3.8698345061080603,1,3.5373720730848683
10,19-May-2017,1,4,stim.wav,1,17,4322,-4.1394610148519,1,3.5373720730848683
10,19-May-2017,1,4,stim.wav,1,18,4895,4.583266336301822,1,3.5373720730848683
10,19-May-2017,1,4,stim.wav,1,19,5534,-2.6151241366133258,1,3.5373720730848683
10,19-May-2017,1,4,stim.wav,1,20,6245,-3.206265268460159,1,3.5373720730848683
10,19-May-2017,1,4,stim.wav,1,21,7037,1.3042627094108212,1,3.5373720730848683
10,19-May-2017,1,4,stim.wav,1,22,7920,8.897772844812906,1,3.5373720730848683
10,19-May-2017,1,4,stim.wav,1,23,8904,-5.220045189342025,1,3.5373720730848683
10,19-May-2017,1,4,stim.wav,1,24,10000,5.089090072331125,1,3.5373720730848683
10,19-May-2017,1,5,stim.wav,0,0,100,-5.666753364345873,1,1.1537463076787282
10,19-May-2017,1,5,stim.wav,0,1,191,2.2632094304515964,1,1.1537463076787282
10,19-May-2017,1,5,stim.wav,0,2,293,-9.081748776738866,1,1.1537463076787282
10,19-May-2017,1,5,stim.wav,0,3,406,-7.52136904849527,1,1.1537463076787282
10,19-May-2017,1,5,stim.wav,0,4,533,2.0769478666633385,1,1.1537463076787282
10,19-May-2017,1,5,stim.wav,0,5,673,0.22847369592292577,1,1.1537463076787282
10,19-May-2017,1,5,stim.wav,0,6,830,-3.551385082584998,1,1.1537463076787282
10,19-May-2017,1,5,stim.wav,0,7,1004,3.8300933749373933,1,1.1537463076787282
10,19-May-2017,1,5,stim.wav,0,8,1199,-1.0753239436136668,1,1.1537463076787282
10,19-May-2017,1,5,stim.wav,0,9,1416,7.222513542066309,1,1.1537463076787282
10,19-May-2017,1,5,stim.wav,0,10,1657,-4.037154678757995,1,1.1537463076787282
10,19-May-2017,1,5,stim.wav,0,11,1926,0.8428606696996411,1,1.1537463076787282
10,19-May-2017,1,5,stim.wav,0,12,2226,3.206339740064776,1,1.1537463076787282
10,19-May-2017,1,5,stim.wav,0,13,2560,6.711340413708765,1,1.1537463076787282
10,19-May-2017,1,5,stim.wav,0,14,2932,3.376633145905637,1,1.1537463076787282
10,19-May-2017,1,5,stim.wav,0,15,3346,3.7027468435479682,1,1.1537463076787282
10,19-May-2017,1,5,stim.wav,0,16,3808,7.306046816963407,1,1.1537463076787282
10,19-May-2017,1,5,stim.wav,0,17,4322,-6.047688616883229,1,1.1537463076787282
10,19-May-2017,1,5,stim.wav,0,18,4895,3.8096580562106657,1,1.1537463076787282
10,19-May-2017,1,5,stim.wav,0,19,5534,8.642882150639194,1,1.1537463076787282
10,19-May-2017,1,5,stim.wav,0,20,6245,6.113091502168339,1,1.1537463076787282
10,19-May-2017,1,5,stim.wav,0,21,7037,-4.3257235085413654,1,1.1537463076787282
10,19-May-2017,1,5,stim.wav,0,22,7920,1.433297909617683,1,1.1537463076787282
10,19-May-2017,1,5,stim.wav,0,23,8904,3.6195475984597,1,1.1537463076787282
10,19-May-2017,1,5,stim.wav,0,24,10000,-1.4662822321664926,1,1.1537463076787282
10,19-May-2017,1,5,stim.wav,1,0,100,2.5658955924471223,0,1.1537463076787282
10,19-May-2017,1,5,stim.wav,1,1,191,-4.056770484747906,0,1.1537463076787282
10,19-May-2017,1,5,stim.wav,1,2,293,-0.5700813877299137,0,1.1537463076787282
10,19-May-2017,1,5,stim.wav,1,3,406,0.9752609105497001,0,1.1537463076787282
10,19-May-2017,1,5,stim.wav,1,4,533,6.316481639974388,0,1.1537463076787282
10,19-May-2017,1,5,stim.wav,1,5,673,-4.859149236197521,0,1.1537463076787282
10,19-May-2017,1,5,stim.wav,1,6,830,-0.5088667512318136,0,1.1537463076787282
10,19-May-2017,1,5,stim.wav,1,7,1004,-5.229860269820121,0,1.1537463076787282
10,19-May-2017,1,5,stim.wav,1,8,1199,4.324731274264754,0,1.1537463076787282
10,19-May-2017,1,5,stim.wav,1,9,1416,-9.444317762219884,0,1.1537463076787282
10,19-May-2017,1,5,stim.wav,1,10,1657,3.1822496972005436,0,1.1537463076787282
10,19-May-2017,1,5,stim.wav,1,11,1926,3.8514419298017715,0,1.1537463076787282
10,19-May-2017,1,5,stim.wav,1,12,2226,-2.294688088688442,0,1.1537463076787282
10,19-May-2017,1,5,stim.wav,1,13,2560,7.582311338741809,0,1.1537463076787282
10,19-May-2017,1,5,stim.wav,1,14,2932,-8.165029697967029,0,1.1537463076787282
10,19-May-2017,1,5,stim.wav,1,15,3346,-0.92472867984952,0,1.1537463076787282
10,19-May-2017,1,5,stim.wav,1,16,3808,-0.9639060150988559,0,1.1537463076787282
10,19-May-2017,1,5,stim.wav,1,17,4322,0.29194694125041676,0,1.1537463076787282
10,19-May-2017,1,5,stim.wav,1,18,4895,7.545710520896235,0,1.1537463076787282
10,19-May-2017,1,5,stim.wav,1,19,5534,-7.260881066797351,0,1.1537463076787282
10,19-May-2017,1,5,stim.wav,1,20,6245,3.1431489550404663,0,1.1537463076787282
10,19-May-2017,1,5,stim.wav,1,21,7037,-0.9282228276258654,0,1.1537463076787282
10,19-May-2017,1,5,stim.wav,1,22,7920,-0.299600943544571,0,1.1537463076787282
10,19-May-2017,1,5,stim.wav,1,23,8904,2.312826887300736,0,1.1537463076787282
10,19-May-2017,1,5,stim.wav,1,24,10000,7.625726257522451,0,1.1537463076787282
10,19-May-2017,1,6,stim.wav,0,0,100,1.475363889580275,1,1.4510109279709116
10,19-May-2017,1,6,stim.wav,0,1,191,-1.0986604043090873,1,1.4510109279709116
10,19-May-2017,1,6,stim.wav,0,2,293,4.184576415969088,1,1.4510109279709116
10,19-May-2017,1,6,stim.wav,0,3,406,9.302071398099452,1,1.4510109279709116
10,19-May-2017,1,6,stim.wav,0,4,533,5.824866596942019,1,1.4510109279709116
10,19-May-2017,1,6,stim.wav,0,5,673,-3.509373351532547,1,1.4510109279709116
10,19-May-2017,1,6,stim.wav,0,6,830,4.581262721177529,1,1.4510109279709116
10,19-May-2017,1,6,stim.wav,0,7,1004,2.8668581516315346,1,1.4510109279709116
10,19-May-2017,1,6,stim.wav,0,8,1199,4.0082439344458685,1,1.4510109279709116
10,19-May-2017,1,6,stim.wav,0,9,1416,-5.618580681044452,1,1.4510109279709116
10,19-May-2017,1,6,stim.wav,0,10,1657,-3.7920542360754386,1,1.4510109279709116
10,19-May-2017,1,6,stim.wav,0,11,1926,6.498705663942273,1,1.4510109279709116
10,19-May-2017,1,6,stim.wav,0,12,2226,10.13688091498456,1,1.4510109279709116
10,19-May-2017,1,6,stim.wav,0,13,2560,-8.527814454450477,1,1.4510109279709116
10,19-May-2017,1,6,stim.wav,0,14,2932,6.190726487048705,1,1.4510109279709116
10,19-May-2017,1,6,stim.wav,0,15,3346,-5.286063658037903,1,1.4510109279709116
10,19-May-2017,1,6,stim.wav,0,16,3808,-3.6337120225979143,1,1.4510109279709116
10,19-May-2017,1,6,stim.wav,0,17,4322,-0.24137629685757192,1,1.4510109279709116
10,19-May-2017,1,6,stim.wav,0,18,4895,-1.1733883965899454,1,1.4510109279709116
10,19-May-2017,1,6,stim.wav,0,19,5534,12.46093965917293,1,1.4510109279709116
10,19-May-2017,1,6,stim.wav,0,20,6245,-0.41756198766448144,1,1.4510109279709116
10,19-May-2017,1,6,stim.wav,0,21,7037,-10.36905889776561,1,1.4510109279709116
10,19-May-2017,1,6,stim.wav,0,22,7920,0.8895998100333581,1,1.4510109279709116
10,19-May-2017,1,6,stim.wav,0,23,8904,-4.298548280743625,1,1.4510109279709116
10,19-May-2017,1,6,stim.wav,0,24,10000,3.06886228113844,1,1.4510109279709116
10,19-May-2017,1,6,stim.wav,1,0,100,3.008532364821476,0,1.4510109279709116
10,19-May-2017,1,6,stim.wav,1,1,191,-0.23876596895451724,0,1.4510109279709116
10,19-May-2017,1,6,stim.wav,1,2,293,-0.26433295923285016,0,1.4510109279709116
10,19-May-2017,1,6,stim.wav,1,3,406,0.40589186129148624,0,1.4510109279709116
10,19-May-2017,1,6,stim.wav,1,4,533,6.350021838800927,0,1.4510109279709116
10,19-May-2017,1,6,stim.wav,1,5,673,-7.847433123544834,0,1.4510109279709116
10,19-May-2017,1,6,stim.wav,1,6,830,3.161930508750819,0,1.4510109279709116
10,19-May-2017,1,6,stim.wav,1,7,1004,9.638237703590374,0,1.4510109279709116
10,19-May-2017,1,6,stim.wav,1,8,1199,-6.188978166799489,0,1.4510109279709116
10,19-May-2017,1,6,stim.wav,1,9,1416,5.720536914563582,0,1.4510109279709116
10,19-May-2017,1,6,stim.wav,1,10,1657,0.7605733916864361,0,1.4510109279709116
10,19-May-2017,1,6,stim.wav,1,11,1926,-7.986367964168837,0,1.4510109279709116
10,19-May-2017,1,6,stim.wav,1,12,2226,-4.539570018388469,0,1.4510109279709116
10,19-May-2017,1,6,stim.wav,1,13,2560,-5.704567972129167,0,1.4510109279709116
10,19-May-2017,1,6,stim.wav,1,14,2932,2.916995463949465,0,1.4510109279709116
10,19-May-2017,1,6,stim.wav,1,15,3346,1.808548199668162,0,1.4510109279709116
10,19-May-2017,1,6,stim.wav,1,16,3808,-6.813066106587552,0,1.4510109279709116
10,19-May-2017,1,6,stim.wav,1,17,4322,3.0828762656759863,0,1.4510109279709116
10,19-May-2017,1,6,stim.wav,1,18,4895,-0.16609038495237238,0,1.4510109279709116
10,19-May-2017,1,6,stim.wav,1,19,5534,7.036019064229469,0,1.4510109279709116
10,19-May-2017,1,6,stim.wav,1,20,6245,4.777232191852718,0,1.4510109279709116
10,19-May-2017,1,6,stim.wav,1,21,7037,-4.628115964521303,0,1.4510109279709116
10,19-May-2017,1,6,stim.wav,1,22,7920,-6.248822618883635,0,1.4510109279709116
10,19-May-2017,1,6,stim.wav,1,23,8904,-2.8534340284719533,0,1.4510109279709116
10,19-May-2017,1,6,stim.wav,1,24,10000,-1.029272527588745,0,1.4510109279709116
10,19-May-2017,1,7,stim.wav,0,0,100,5.448953512518342,0,0.9867404868629656
10,19-May-2017,1,7,stim.wav,0,1,191,-0.00816535662042407,0,0.9867404868629656
10,19-May-2017,1,7,stim.wav,0,2,293,0.6880576997107503,0,0.9867404868629656
10,19-May-2017,1,7,stim.wav,0,3,406,5.0447183278931105,0,0.9867404868629656
10,19-May-2017,1,7,stim.wav,0,4,533,-2.0237875482600645,0,0.9867404868629656
10,19-May-2017,1,7,stim.wav,0,5,673,2.3269790372508847,0,0.9867404868629656
10,19-May-2017,1,7,stim.wav,0,6,830,3.391391075175447,0,0.9867404868629656
10,19-May-2017,1,7,stim.wav,0,7,1004,0.15011438426052054,0,0.9867404868629656
10,19-May-2017,1,7,stim.wav,0,8,1199,-2.058999757713311,0,0.9867404868629656
10,19-May-2017,1,7,stim.wav,0,9,1416,-10.36048125834297,0,0.9867404868629656
10,19-May-2017,1,7,stim.wav,0,10,1657,1.885787601565359,0,0.9867404868629656
10,19-May-2017,1,7,stim.wav,0,11,1926,-1.481523842229599,0,0.9867404868629656
10,19-May-2017,1,7,stim.wav,0,12,2226,6.250822822229355,0,0.9867404868629656
10,19-May-2017,1,7,stim.wav,0,13,2560,0.11683323486408216,0,0.9867404868629656
10,19-May-2017,1,7,stim.wav,0,14,2932,0.945361879269065,0,0.9867404868629656
10,19-May-2017,1,7,stim.wav,0,15,3346,-10.03076130251146,0,0.9867404868629656
10,19-May-2017,1,7,stim.wav,0,16,3808,5.216002776395819,0,0.9867404868629656
10,19-May-2017,1,7,stim.wav,0,17,4322,7.824843860225852,0,0.9867404868629656
10,19-May-2017,1,7,stim.wav,0,18,4895,-0.23351426054924296,0,0.9867404868629656
10,19-May-2017,1,7,stim.wav,0,19,5534,-10.151688727488041,0,0.9867404868629656
10,19-May-2017,1,7,stim.wav,0,20,6245,-4.810042253461509,0,0.9867404868629656
10,19-May-2017,1,7,stim.wav,0,21,7037,-0.08793209469574252,0,0.9867404868629656
10,19-May-2017,1,7,stim.wav,0,22,7920,1.0501855222748282,0,0.9867404868629656
10,19-May-2017,1,7,stim.wav,0,23,8904,2.6188775353670497,0,0.9867404868629656
10,19-May-2017,1,7,stim.wav,0,24,10000,12.48109840027855,0,0.9867404868629656
10,19-May-2017,1,7,stim.wav,1,0,100,-3.628796124485078,1,0.9867404868629656
10,19-May-2017,1,7,stim.wav,1,1,191,0.9494920910871449,1,0.9867404868629656
10,19-May-2017,1,7,stim.wav,1,2,293,-5.686274113091816,1,0.9867404868629656
10,19-May-2017,1,7,stim.wav,1,3,406,-5.9585272302735035,1,0.9867404868629656
10,19-May-2017,1,7,stim.wav,1,4,533,-5.529296529076396,1,0.9867404868629656
10,19-May-2017,1,7,stim.wav,1,5,673,3.822284533028248,1,0.9867404868629656
10,19-May-2017,1,7,stim.wav,1,6,830,6.9394346360769585,1,0.9867404868629656
10,19-May-2017,1,7,stim.wav,1,7,1004,0.23639847287383142,1,0.9867404868629656
10,19-May-2017,1,7,stim.wav,1,8,1199,10.205283139347149,1,0.9867404868629656
10,19-May-2017,1,7,stim.wav,1,9,1416,-1.827467768263502,1,0.9867404868629656
10,19-May-2017,1,7,stim.wav,1,10,1657,-3.994308298534826,1,0.9867404868629656
10,19-May-2017,1,7,stim.wav,1,11,1926,0.7639362085439174,1,0.9867404868629656
10,19-May-2017,1,7,stim.wav,1,12,2226,6.513239924608147,1,0.9867404868629656
10,19-May-2017,1,7,stim.wav,1,13,2560,-3.7118423463960553,1,0.9867404868629656
10,19-May-2017,1,7,stim.wav,1,14,2932,1.3755946301178346,1,0.9867404868629656
10,19-May-2017,1,7,stim.wav,1,15,3346,-11.803257042726699,1,0.9867404868629656
10,19-May-2017,1,7,stim.wav,1,16,3808,-3.9631828979308183,1,0.9867404868629656
10,19-May-2017,1,7,stim.wav,1,17,4322,0.8655067132824347,1,0.9867404868629656
10,19-May-2017,1,7,stim.wav,1,18,4895,-3.564049810143212,1,0.9867404868629656
10,19-May-2017,1,7,stim.wav,1,19,5534,1.742612498971464,1,0.9867404868629656
10,19-May-2017,1,7,stim.wav,1,20,6245,-0.8640548023390864,1,0.9867404868629656
10,19-May-2017,1,7,stim.wav,1,21,7037,0.5498381747228029,1,0.9867404868629656
10,19-May-2017,1,7,stim.wav,1,22,7920,0.8477667209156604,1,0.9867404868629656
10,19-May-2017,1,7,stim.wav,1,23,8904,-6.561676744520501,1,0.9867404868629656
10,19-May-2017,1,7,stim.wav,1,24,10000,1.4279411478382886,1,0.9867404868629656
10,19-May-2017,1,8,stim.wav,0,0,100,-6.007413039725371,0,4.508787673309024
10,19-May-2017,1,8,stim.wav,0,1,191,4.393128342028538,0,4.508787673309024
10,19-May-2017,1,8,stim.wav,0,2,293,-2.7742959890189605,0,4.508787673309024
10,19-May-2017,1,8,stim.wav,0,3,406,-0.3724209230297851,0,4.508787673309024
10,19-May-2017,1,8,stim.wav,0,4,533,4.936989925795038,0,4.508787673309024
10,19-May-2017,1,8,stim.wav,0,5,673,1.8509856689905835,0,4.508787673309024
10,19-May-2017,1,8,stim.wav,0,6,830,-2.538936551459888,0,4.508787673309024
10,19-May-2017,1,8,stim.wav,0,7,1004,-7.496041922415172,0,4.508787673309024
10,19-May-2017,1,8,stim.wav,0,8,1199,-4.147469292259144,0,4.508787673309024
10,19-May-2017,1,8,stim.wav,0,9,1416,5.154561433112226,0,4.508787673309024
10,19-May-2017,1,8,stim.wav,0,10,1657,2.5789093185848317,0,4.508787673309024
10,19-May-2017,1,8,stim.wav,0,11,1926,4.051943042559879,0,4.508787673309024
10,19-May-2017,1,8,stim.wav,0,12,2226,-5.246943160218844,0,4.508787673309024
10,19-May-2017,1,8,stim.wav,0,13,2560,-4.588732423931228,0,4.508787673309024
10,19-May-2017,1,8,stim.wav,0,14,2932,-3.323502435254526,0,4.508787673309024
10,19-May-2017,1,8,stim.wav,0,15,3346,-7.827701256414983,0,4.508787673309024
10,19-May-2017,1,8,stim.wav,0,16,3808,5.391201924760619,0,4.508787673309024
10,19-May-2017,1,8,stim.wav,0,17,4322,-7.551767438998399,0,4.508787673309024
10,19-May-2017,1,8,stim.wav,0,18,4895,10.496843546077937,0,4.508787673309024
10,19-May-2017,1,8,stim.wav,0,19,5534,-2.462964070635954,0,4.508787673309024
10,19-May-2017,1,8,stim.wav,0,20,6245,-5.461969555547927,0,4.508787673309024
10,19-May-2017,1,8,stim.wav,0,21,7037,11.26982182317265,0,4.508787673309024
10,19-May-2017,1,8,stim.wav,0,22,7920,-11.897701636593826,0,4.508787673309024
10,19-May-2017,1,8,stim.wav,0,23,8904,-2.6306938068338126,0,4.508787673309024
10,19-May-2017,1,8,stim.wav,0,24,10000,-0.9678011201050216,0,4.508787673309024
10,19-May-2017,1,8,stim.wav,1,0,100,-3.7057245382790254,1,4.508787673309024
10,19-May-2017,1,8,stim.wav,1,1,191,-3.5541439257076304,1,4.508787673309024
10,19-May-2017,1,8,stim.wav,1,2,293,-5.592919412245278,1,4.508787673309024
10,19-May-2017,1,8,stim.wav,1,3,406,-1.467382789615145,1,4.508787673309024
10,19-May-2017,1,8,stim.wav,1,4,533,2.2404460000546473,1,4.508787673309024
10,19-May-2017,1,8,stim.wav,1,5,673,3.3620604273895327,1,4.508787673309024
10,19-May-2017,1,8,stim.wav,1,6,830,-6.444915290087749,1,4.508787673309024
10,19-May-2017,1,8,stim.wav,1,7,1004,0.7647233678821297,1,4.508787673309024
10,19-May-2017,1,8,stim.wav,1,8,1199,10.78142276118497,1,4.508787673309024
10,19-May-2017,1,8,stim.wav,1,9,1416,-0.53042224102711,1,4.508787673309024
10,19-May-2017,1,8,stim.wav,1,10,1657,-2.05497313852217,1,4.508787673309024
10,19-May-2017,1,8,stim.wav,1,11,1926,3.1176852053885167,1,4.508787673309024
10,19-May-2017,1,8,stim.wav,1,12,2226,-1.5392290213575321,1,4.508787673309024
10,19-May-2017,1,8,stim.wav,1,13,2560,-0.8018533135933016,1,4.508787673309024
10,19-May-2017,1,8,stim.wav,1,14,2932,4.45969287762615,1,4.508787673309024
10,19-May-2017,1,8,stim.wav,1,15,3346,4.1759951037870895,1,4.508787673309024
10,19-May-2017,1,8,stim.wav,1,16,3808,1.0894565599360975,1,4.508787673309024
10,19-May-2017,1,8,stim.wav,1,17,4322,5.957336602064192,1,4.508787673309024
10,19-May-2017,1,8,stim.wav,1,18,4895,3.238487734128148,1,4.508787673309024
10,19-May-2017,1,8,stim.wav,1,19,5534,0.251672219549683,1,4.508787673309024
10,19-May-2017,1,8,stim.wav,1,20,6245,-3.277587502484029,1,4.508787673309024
10,19-May-2017,1,8,stim.wav,1,21,7037,-2.09418520782897,1,4.508787673309024
10,19-May-2017,1,8,stim.wav,1,22,7920,3.7813570995351053,1,4.508787673309024
10,19-May-2017,1,8,stim.wav,1,23,8904,-2.504165495748214,1,4.508787673309024
10,19-May-2017,1,8,stim.wav,1,24,10000,-0.07293877540935048,1,4.508787673309024
10,19-May-2017,1,9,stim.wav,0,0,100,-6.126984843570197,1,0.6784490232155235
10,19-May-2017,1,9,stim.wav,0,1,191,-1.1501538031891263,1,0.6784490232155235
10,19-May-2017,1,9,stim.wav,0,2,293,-6.043868124012116,1,0.6784490232155235
10,19-May-2017,1,9,stim.wav,0,3,406,-9.835232542304492,1,0.6784490232155235
10,19-May-2017,1,9,stim.wav,0,4,533,-8.872273268775468,1,0.6784490232155235
10,19-May-2017,1,9,stim.wav,0,5,673,5.161886280460517,1,0.6784490232155235
10,19-May-2017,1,9,stim.wav,0,6,830,2.1429562059221303,1,0.6784490232155235
10,19-May-2017,1,9,stim.wav,0,7,1004,3.3889894016374287,1,0.6784490232155235
10,19-May-2017,1,9,stim.wav,0,8,1199,0.197718887160164,1,0.6784490232155235
10,19-May-2017,1,9,stim.wav,0,9,1416,-6.045192931975113,1,0.6784490232155235
10,19-May-2017,1,9,stim.wav,0,10,1657,-0.562798909008625,1,0.6784490232155235
10,19-May-2017,1,9,stim.wav,0,11,1926,-4.037302118972754,1,0.6784490232155235
10,19-May-2017,1,9,stim.wav,0,12,2226,-0.9415501448077122,1,0.6784490232155235
10,19-May-2017,1,9,stim.wav,0,13,2560,1.3739833643390291,1,0.6784490232155235
10,19-May-2017,1,9,stim.wav,0,14,2932,2.743072254608152,1,0.6784490232155235
10,19-May-2017,1,9,stim.wav,0,15,3346,-7.394703808563161,1,0.6784490232155235
10,19-May-2017,1,9,stim.wav,0,16,3808,1.9528966146300943,1,0.6784490232155235
10,19-May-2017,1,9,stim.wav,0,17,4322,2.5734853413615175,1,0.6784490232155235
10,19-May-2017,1,9,stim.wav,0,18,4895,0.7278936832592204,1,0.6784490232155235
10,19-May-2017,1,9,stim.wav,0,19,5534,2.2861875515778842,1,0.6784490232155235
10,19-May-2017,1,9,stim.wav,0,20,6245,-2.3416302233275386,1,0.6784490232155235
10,19-May-2017,1,9,stim.wav,0,21,7037,-4.155535544447236,1,0.6784490232155235
10,19-May-2017,1,9,stim.wav,0,22,7920,-2.952576558957309,1,0.6784490232155235
10,19-May-2017,1,9,stim.wav,0,23,8904,1.0363445577149812,1,0.6784490232155235
10,19-May-2017,1,9,stim.wav,0,24,10000,-10.50991756730335,1,0.6784490232155235
10,19-May-2017,1,9,stim.wav,1,0,100,0.9068651504860541,0,0.6784490232155235
10,19-May-2017,1,9,stim.wav,1,1,191,-6.452651852613202,0,0.6784490232155235
10,19-May-2017,1,9,stim.wav,1,2,293,-0.7814184016365957,0,0.6784490232155235
10,19-May-2017,1,9,stim.wav,1,3,406,-5.967275454044878,0,0.6784490232155235
10,19-May-2017,1,9,stim.wav,1,4,533,2.4971619581846265,0,0.6784490232155235
10,19-May-2017,1,9,stim.wav,1,5,673,4.980350106429508,0,0.6784490232155235
10,19-May-2017,1,9,stim.wav,1,6,830,-4.7907832952947045,0,0.6784490232155235
10,19-May-2017,1,9,stim.wav,1,7,1004,0.02408166224898152,0,0.6784490232155235
10,19-May-2017,1,9,stim.wav,1,8,1199,1.8370571850822504,0,0.6784490232155235
10,19-May-2017,1,9,stim.wav,1,9,1416,3.354157284591222,0,0.6784490232155235
10,19-May-2017,1,9,stim.wav,1,10,1657,-1.705679308842381,0,0.6784490232155235
10,19-May-2017,1,9,stim.wav,1,11,1926,1.7455407008925947,0,0.6784490232155235
10,19-May-2017,1,9,stim.wav,1,12,2226,0.6304270176582067,0,0.6784490232155235
10,19-May-2017,1,9,stim.wav,1,13,2560,6.2608905913897654,0,0.6784490232155235
10,19-May-2017,1,9,stim.wav,1,14,2932,-4.522242076203543,0,0.6784490232155235
10,19-May-2017,1,9,stim.wav,1,15,3346,-4.652056350108921,0,0.6784490232155235
10,19-May-2017,1,9,stim.wav,1,16,3808,5.270733431796155,0,0.6784490232155235
10,19-May-2017,1,9,stim.wav,1,17,4322,-0.37306667575540575,0,0.6784490232155235
10,19-May-2017,1,9,stim.wav,1,18,4895,-5.429367061848772,0,0.6784490232155235
10,19-May-2017,1,9,stim.wav,1,19,5534,5.18159533903223,0,0.6784490232155235
10,19-May-2017,1,9,stim.wav,1,20,6245,-9.810078982707566,0,0.6784490232155235
10,19-May-2017,1,9,stim.wav,1,21,7037,0.4784606768745961,0,0.6784490232155235
10,19-May-2017,1,9,stim.wav,1,22,7920,-1.9844506334615175,0,0.6784490232155235
10,19-May-2017,1,9,stim.wav,1,23,8904,-5.781701387610188,0,0.6784490232155235
10,19-May-2017,1,9,stim.wav,1,24,10000,-6.73904188388477,0,0.6784490232155235
10,19-May-2017,1,10,stim.wav,0,0,100,3.2919891572491427,1,1.0144073229926671
10,19-May-2017,1,10,stim.wav,0,1,191,-0.07468872229255702,1,1.0144073229926671
10,19-May-2017,1,10,stim.wav,0,2,293,-4.934940151577781,1,1.0144073229926671
10,19-May-2017,1,10,stim.wav,0,3,406,3.3223182863600718,1,1.0144073229926671
10,19-May-2017,1,10,stim.wav,0,4,533,5.824611602647258,1,1.0144073229926671
10,19-May-2017,1,10,stim.wav,0,5,673,8.880680523388175,1,1.0144073229926671
10,19-May-2017,1,10,stim.wav,0,6,830,5.2907714673109965,1,1.0144073229926671
10,19-May-2017,1,10,stim.wav,0,7,1004,4.9221223184872045,1,1.0144073229926671
10,19-May-2017,1,10,stim.wav,0,8,1199,-5.19348067794167,1,1.0144073229926671
10,19-May-2017,1,10,stim.wav,0,9,1416,-5.813494671459375,1,1.0144073229926671
10,19-May-2017,1,10,stim.wav,0,10,1657,3.8122382731097764,1,1.0144073229926671
10,19-May-2017,1,10,stim.wav,0,11,1926,-2.8395664888083867,1,1.0144073229926671
10,19-May-2017,1,10,stim.wav,0,12,2226,0.35730951076340356,1,1.0144073229926671
10,19-May-2017,1,10,stim.wav,0,13,2560,2.226467302193453,1,1.0144073229926671
10,19-May-2017,1,10,stim.wav,0,14,2932,4.561978013821051,1,1.0144073229926671
10,19-May-2017,1,10,stim.wav,0,15,3346,-2.4941067316411343,1,1.0144073229926671
10,19-May-2017,1,10,stim.wav,0,16,3808,7.304115813059856,1,1.0144073229926671
10,19-May-2017,1,10,stim.wav,0,17,4322,5.5196542655801935,1,1.0144073229926671
10,19-May-2017,1,10,stim.wav,0,18,4895,-5.750798953989527,1,1.0144073229926671
10,19-May-2017,1,10,stim.wav,0,19,5534,-2.743890420703383,1,1.0144073229926671
10,19-May-2017,1,10,stim.wav,0,20,6245,0.4550769597169746,1,1.0144073229926671
10,19-May-2017,1,10,stim.wav,0,21,7037,8.144195924534586,1,1.0144073229926671
10,19-May-2017,1,10,stim.wav,0,22,7920,1.3450798972413283,1,1.0144073229926671
10,19-May-2017,1,10,stim.wav,0,23,8904,-0.7708872584486717,1,1.0144073229926671
10,19-May-2017,1,10,stim.wav,0,24,10000,-9.156757856510534,1,1.0144073229926671
10,19-May-2017,1,10,stim.wav,1,0,100,3.835268490013122,0,1.0144073229926671
10,19-May-2017,1,10,stim.wav,1,1,191,-1.8214539329325332,0,1.0144073229926671
10,19-May-2017,1,10,stim.wav,1,2,293,-7.00130479326019,0,1.0144073229926671
10,19-May-2017,1,10,stim.wav,1,3,406,5.802316321115223,0,1.0144073229926671
10,19-May-2017,1,10,stim.wav,1,4,533,7.453391256991914,0,1.0144073229926671
10,19-May-2017,1,10,stim.wav,1,5,673,-5.211993835025902,0,1.0144073229926671
10,19-May-2017,1,10,stim.wav,1,6,830,3.0493741790915747,0,1.0144073229926671
10,19-May-2017,1,10,stim.wav,1,7,1004,-5.127951356357787,0,1.0144073229926671
10,19-May-2017,1,10,stim.wav,1,8,1199,-2.5980024126139103,0,1.0144073229926671
10,19-May-2017,1,10,stim.wav,1,9,1416,-0.41151864689754397,0,1.0144073229926671
10,19-May-2017,1,10,stim.wav,1,10,1657,8.16234520437169,0,1.0144073229926671
10,19-May-2017,1,10,stim.wav,1,11,1926,-0.9429577108630685,0,1.0144073229926671
10,19-May-2017,1,10,stim.wav,1,12,2226,-12.434423246745943,0,1.0144073229926671
10,19-May-2017,1,10,stim.wav,1,13,2560,-2.078030154811929,0,1.0144073229926671
10,19-May-2017,1,10,stim.wav,1,14,2932,1.0641885571260241,0,1.0144073229926671
10,19-May-2017,1,10,stim.wav,1,15,3346,1.0044810893982443,0,1.0144073229926671
10,19-May-2017,1,10,stim.wav,1,16,3808,2.031824108465075,0,1.0144073229926671
10,19-May-2017,1,10,stim.wav,1,17,4322,-6.027701410160033,0,1.0144073229926671
10,19-May-2017,1,10,stim.wav,1,18,4895,-6.773106073311931,0,1.0144073229926671
10,19-May-2017,1,10,stim.wav,1,19,5534,6.47923070723309,0,1.0144073229926671
10,19-May-2017,1,10,stim.wav,1,20,6245,6.837109520268521,0,1.0144073229926671
10,19-May-2017,1,10,stim.wav,1,21,7037,-0.7087562681516196,0,1.0144073229926671
10,19-May-2017,1,10,stim.wav,1,22,7920,0.18956703895598426,0,1.0144073229926671
10,19-May-2017,1,10,stim.wav,1,23,8904,-0.21501706034827378,0,1.0144073229926671
10,19-May-2017,1,10,stim.wav,1,24,10000,-2.773941238295043,0,1.0144073229926671
10,19-May-2017,1,11,stim.wav,0,0,100,1.3173244257409906,1,2.6643143692109157
10,19-May-2017,1,11,stim.wav,0,1,191,-8.040633223854806,1,2.6643143692109157
10,19-May-2017,1,11,stim.wav,0,2,293,0.316805072595825,1,2.6643143692109157
10,19-May-2017,1,11,stim.wav,0,3,406,-11.394816070633828,1,2.6643143692109157
10,19-May-2017,1,11,stim.wav,0,4,533,-1.6824853789415557,1,2.6643143692109157
10,19-May-2017,1,11,stim.wav,0,5,673,2.2232090301889276,1,2.6643143692109157
10,19-May-2017,1,11,stim.wav,0,6,830,1.1804532456919958,1,2.6643143692109157
10,19-May-2017,1,11,stim.wav,0,7,1004,-0.3309592512009879,1,2.6643143692109157
10,19-May-2017,1,11,stim.wav,0,8,1199,0.5441229898320319,1,2.6643143692109157
10,19-May-2017,1,11,stim.wav,0,9,1416,3.231057833821429,1,2.6643143692109157
10,19-May-2017,1,11,stim.wav,0,10,1657,1.344522509900706,1,2.6643143692109157
10,19-May-2017,1,11,stim.wav,0,11,1926,-0.7181474779222219,1,2.6643143692109157
10,19-May-2017,1,11,stim.wav,0,12,2226,-0.13510549275060962,1,2.6643143692109157
10,19-May-2017,1,11,stim.wav,0,13,2560,8.239242319164976,1,2.6643143692109157
10,19-May-2017,1,11,stim.wav,0,14,2932,-0.7585144114567101,1,2.6643143692109157
10,19-May-2017,1,11,stim.wav,0,15,3346,3.052654260622397,1,2.6643143692109157
10,19-May-2017,1,11,stim.wav,0,16,3808,-2.200189137029034,1,2.6643143692109157
10,19-May-2017,1,11,stim.wav,0,17,4322,1.2187625461598408,1,2.6643143692109157
10,19-May-2017,1,11,stim.wav,0,18,4895,-2.939875994313599,1,2.6643143692109157
10,19-May-2017,1,11,stim.wav,0,19,5534,-2.3676147949204043,1,2.6643143692109157
10,19-May-2017,1,11,stim.wav,0,20,6245,-7.136368629019484,1,2.6643143692109157
10,19-May-2017,1,11,stim.wav,0,21,7037,-1.9782043559449667,1,2.6643143692109157
10,19-May-2017,1,11,stim.wav,0,22,7920,-2.266945219799403,1,2.6643143692109157
10,19-May-2017,1,11,stim.wav,0,23,8904,7.6256245141429835,1,2.6643143692109157
10,19-May-2017,1,11,stim.wav,0,24,10000,1.4578369934488644,1,2.6643143692109157
10,19-May-2017,1,11,stim.wav,1,0,100,3.329500801019769,0,2.6643143692109157
10,19-May-2017,1,11,stim.wav,1,1,191,4.546703449177781,0,2.6643143692109157
10,19-May-2017,1,11,stim.wav,1,2,293,-7.9355281763563355,0,2.6643143692109157
10,19-May-2017,1,11,stim.wav,1,3,406,-4.035574919460528,0,2.6643143692109157
10,19-May-2017,1,11,stim.wav,1,4,533,10.560683362009332,0,2.6643143692109157
10,19-May-2017,1,11,stim.wav,1,5,673,5.270804955251417,0,2.6643143692109157
10,19-May-2017,1,11,stim.wav,1,6,830,-2.043277272596135,0,2.6643143692109157
10,19-May-2017,1,11,stim.wav,1,7,1004,-6.025978833465234,0,2.6643143692109157
10,19-May-2017,1,11,stim.wav,1,8,1199,5.433343498080542,0,2.6643143692109157
10,19-May-2017,1,11,stim.wav,1,9,1416,6.010488498094463,0,2.6643143692109157
10,19-May-2017,1,11,stim.wav,1,10,1657,8.135937325912142,0,2.6643143692109157
10,19-May-2017,1,11,stim.wav,1,11,1926,-12.298889473074958,0,2.6643143692109157
10,19-May-2017,1,11,stim.wav,1,12,2226,4.042602789670651,0,2.6643143692109157
10,19-May-2017,1,11,stim.wav,1,13,2560,-1.4271493660876313,0,2.6643143692109157
10,19-May-2017,1,11,stim.wav,1,14,2932,2.205025635063223,0,2.6643143692109157
10,19-May-2017,1,11,stim.wav,1,15,3346,-8.757861321377128,0,2.6643143692109157
10,19-May-2017,1,11,stim.wav,1,16,3808,5.500313954563261,0,2.6643143692109157
10,19-May-2017,1,11,stim.wav,1,17,4322,2.000419749771559,0,2.6643143692109157
10,19-May-2017,1,11,stim.wav,1,18,4895,-4.969584518543398,0,2.6643143692109157
10,19-May-2017,1,11,stim.wav,1,19,5534,-4.273025554894542,0,2.6643143692109157
10,19-May-2017,1,11,stim.wav,1,20,6245,-6.861143394678275,0,2.6643143692109157
10,19-May-2017,1,11,stim.wav,1,21,7037,1.7488451379965206,0,2.6643143692109157
10,19-May-2017,1,11,stim.wav,1,22,7920,7.570946425384135,0,2.6643143692109157
10,19-May-2017,1,11,stim.wav,1,23,8904,-0.42046834805803124,0,2.6643143692109157
10,19-May-2017,1,11,stim.wav,1,24,10000,-3.3137646770264184,0,2.6643143692109157
10,19-May-2017,1,12,stim.wav,0,0,100,1.5185964210432763,0,10.59855153580722
10,19-May-2017,1,12,stim.wav,0,1,191,-0.381173804426336,0,10.59855153580722
10,19-May-2017,1,12,stim.wav,0,2,293,0.5947717499204676,0,10.59855153580722
10,19-May-2017,1,12,stim.wav,0,3,406,1.9809412263822974,0,10.59855153580722
10,19-May-2017,1,12,stim.wav,0,4,533,1.4483542110736134,0,10.59855153580722
10,19-May-2017,1,12,stim.wav,0,5,673,8.128131138510922,0,10.59855153580722
10,19-May-2017,1,12,stim.wav,0,6,830,1.2746460704977385,0,10.59855153580722
10,19-May-2017,1,12,stim.wav,0,7,1004,1.2037128337302558,0,10.59855153580722
10,19-May-2017,1,12,stim.wav,0,8,1199,3.858367755323398,0,10.59855153580722
10,19-May-2017,1,12,stim.wav,0,9,1416,-0.1854018583300884,0,10.59855153580722
10,19-May-2017,1,12,stim.wav,0,10,1657,5.930811724528358,0,10.59855153580722
10,19-May-2017,1,12,stim.wav,0,11,1926,-3.781183249894469,0,10.59855153580722
10,19-May-2017,1,12,stim.wav,0,12,2226,-1.118760196213075,0,10.59855153580722
10,19-May-2017,1,12,stim.wav,0,13,2560,2.284478383954704,0,10.59855153580722
10,19-May-2017,1,12,stim.wav,0,14,2932,6.43386753023373,0,10.59855153580722
10,19-May-2017,1,12,stim.wav,0,15,3346,-8.361582642921617,0,10.59855153580722
10,19-May-2017,1,12,stim.wav,0,16,3808,0.8135662416473989,0,10.59855153580722
10,19-May-2017,1,12,stim.wav,0,17,4322,-4.219763985779384,0,10.59855153580722
10,19-May-2017,1,12,stim.wav,0,18,4895,-0.9064417179953979,0,10.59855153580722
10,19-May-2017,1,12,stim.wav,0,19,5534,-1.0391890551207361,0,10.59855153580722
10,19-May-2017,1,12,stim.wav,0,20,6245,2.478279838131658,0,10.59855153580722
10,19-May-2017,1,12,stim.wav,0,21,7037,-0.8521068585225395,0,10.59855153580722
10,19-May-2017,1,12,stim.wav,0,22,7920,2.0609835410893314,0,10.59855153580722
10,19-May-2017,1,12,stim.wav,0,23,8904,-5.465117160554353,0,10.59855153580722
10,19-May-2017,1,12,stim.wav,0,24,10000,1.3104775301803986,0,10.59855153580722
10,19-May-2017,1,12,stim.wav,1,0,100,-7.165085486413596,1,10.59855153580722
10,19-May-2017,1,12,stim.wav,1,1,191,-0.9172790036243408,1,10.59855153580722
10,19-May-2017,1,12,stim.wav,1,2,293,-3.1243467597182932,1,10.59855153580722
10,19-May-2017,1,12,stim.wav,1,3,406,-2.002894317665298,1,10.59855153580722
10,19-May-2017,1,12,stim.wav,1,4,533,3.660293732363456,1,10.59855153580722
10,19-May-2017,1,12,stim.wav,1,5,673,-1.114741664329417,1,10.59855153580722
10,19-May-2017,1,12,stim.wav,1,6,830,-8.520609570050171,1,10.59855153580722
10,19-May-2017,1,12,stim.wav,1,7,1004,4.096349893097403,1,10.59855153580722
10,19-May-2017,1,12,stim.wav,1,8,1199,-4.2596882553115405,1,10.59855153580722
10,19-May-2017,1,12,stim.wav,1,9,1416,-2.762172519991728,1,10.59855153580722
10,19-May-2017,1,12,stim.wav,1,10,1657,6.651619579331806,1,10.59855153580722
10,19-May-2017,1,12,stim.wav,1,11,1926,-6.217586718042351,1,10.59855153580722
10,19-May-2017,1,12,stim.wav,1,12,2226,-9.67230865635486,1,10.59855153580722
10,19-May-2017,1,12,stim.wav,1,13,2560,9.598627579664083,1,10.59855153580722
10,19-May-2017,1,12,stim.wav,1,14,2932,-5.0157725028260725,1,10.59855153580722
10,19-May-2017,1,12,stim.wav,1,15,3346,-3.0858896179761386,1,10.59855153580722
10,19-May-2017,1,12,stim.wav,1,16,3808,-0.17854529490469337,1,10.59855153580722
10,19-May-2017,1,12,stim.wav,1,17,4322,3.142075358332205,1,10.59855153580722
10,19-May-2017,1,12,stim.wav,1,18,4895,5.826401498496613,1,10.59855153580722
10,19-May-2017,1,12,stim.wav,1,19,5534,-4.401659911321562,1,10.59855153580722
10,19-May-2017,1,12,stim.wav,1,20,6245,3.6454143112597053,1,10.59855153580722
10,19-May-2017,1,12,stim.wav,1,21,7037,4.290573401845469,1,10.59855153580722
10,19-May-2017,1,12,stim.wav,1,22,7920,-7.07599690060959,1,10.59855153580722
10,19-May-2017,1,12,stim.wav,1,23,8904,-1.0680106421548694,1,10.59855153580722
10,19-May-2017,1,12,stim.wav,1,24,10000,-1.7706750290583608,1,10.59855153580722
10,19-May-2017,1,13,stim.wav,0,0,100,-0.7659805024976036,0,2.5273688503221736
10,19-May-2017,1,13,stim.wav,0,1,191,1.8090282965296427,0,2.5273688503221736
10,19-May-2017,1,13,stim.wav,0,2,293,0.527240123315145,0,2.5273688503221736
10,19-May-2017,1,13,stim.wav,0,3,406,12.335666438607408,0,2.5273688503221736
10,19-May-2017,1,13,stim.wav,0,4,533,3.4147637188738185,0,2.5273688503221736
10,19-May-2017,1,13,stim.wav,0,5,673,-4.174005081999758,0,2.5273688503221736
10,19-May-2017,1,13,stim.wav,0,6,830,-3.1779458623427588,0,2.5273688503221736
10,19-May-2017,1,13,stim.wav,0,7,1004,2.37461591953607,0,2.5273688503221736
10,19-May-2017,1,13,stim.wav,0,8,1199,-2.690052185907621,0,2.5273688503221736
10,19-May-2017,1,13,stim.wav,0,9,1416,8.876582709612798,0,2.5273688503221736
10,19-May-2017,1,13,stim.wav,0,10,1657,6.3616608157627255,0,2.5273688503221736
10,19-May-2017,1,13,stim.wav,0,11,1926,-7.457695882736197,0,2.5273688503221736
10,19-May-2017,1,13,stim.wav,0,12,2226,5.497265339545533,0,2.5273688503221736
10,19-May-2017,1,13,stim.wav,0,13,2560,7.474470259017907,0,2.5273688503221736
10,19-May-2017,1,13,stim.wav,0,14,2932,3.8163512043167507,0,2.5273688503221736
10,19-May-2017,1,13,stim.wav,0,15,3346,-6.657990259117058,0,2.5273688503221736
10,19-May-2017,1,13,stim.wav,0,16,3808,-4.3475887528458985,0,2.5273688503221736
10,19-May-2017,1,13,stim.wav,0,17,4322,0.9316115374480711,0,2.5273688503221736
10,19-May-2017,1,13,stim.wav,0,18,4895,7.259001706647896,0,2.5273688503221736
10,19-May-2017,1,13,stim.wav,0,19,5534,0.22623851804384268,0,2.5273688503221736
10,19-May-2017,1,13,stim.wav,0,20,6245,2.49102371490652,0,2.5273688503221736
10,19-May-2017,1,13,stim.wav,0,21,7037,1.4888222758799443,0,2.5273688503221736
10,19-May-2017,1,13,stim.wav,0,22,7920,0.08032585425261837,0,2.5273688503221736
10,19-May-2017,1,13,stim.wav,0,23,8904,2.860069018537837,0,2.5273688503221736
10,19-May-2017,1,13,stim.wav,0,24,10000,7.533381156840199,0,2.5273688503221736
10,19-May-2017,1,13,stim.wav,1,0,100,0.39483647020752327,1,2.5273688503221736
10,19-May-2017,1,13,stim.wav,1,1,191,-2.515753255520963,1,2.5273688503221736
10,19-May-2017,1,13,stim.wav,1,2,293,4.668586259590307,1,2.5273688503221736
10,19-May-2017,1,13,stim.wav,1,3,406,3.674884030370123,1,2.5273688503221736
10,19-May-2017,1,13,stim.wav,1,4,533,-3.3645862799058475,1,2.5273688503221736
10,19-May-2017,1,13,stim.wav,1,5,673,2.8804199673561164,1,2.5273688503221736
10,19-May-2017,1,13,stim.wav,1,6,830,1.2705891305844568,1,2.5273688503221736
10,19-May-2017,1,13,stim.wav,1,7,1004,-0.2822474057459556,1,2.5273688503221736
10,19-May-2017,1,13,stim.wav,1,8,1199,-0.9997836945362815,1,2.5273688503221736
10,19-May-2017,1,13,stim.wav,1,9,1416,6.566740169034665,1,2.5273688503221736
10,19-May-2017,1,13,stim.wav,1,10,1657,2.83596299376491,1,2.5273688503221736
10,19-May-2017,1,13,stim.wav,1,11,1926,-0.9739318276872473,1,2.5273688503221736
10,19-May-2017,1,13,stim.wav,1,12,2226,5.3989202028818,1,2.5273688503221736
10,19-May-2017,1,13,stim.wav,1,13,2560,-4.56742161378757,1,2.5273688503221736
10,19-May-2017,1,13,stim.wav,1,14,2932,-1.905705508777555,1,2.5273688503221736
10,19-May-2017,1,13,stim.wav,1,15,3346,2.0875171825056347,1,2.5273688503221736
10,19-May-2017,1,13,stim.wav,1,16,3808,-2.6508530416554614,1,2.5273688503221736
10,19-May-2017,1,13,stim.wav,1,17,4322,10.10600991771411,1,2.5273688503221736
10,19-May-2017,1,13,stim.wav,1,18,4895,0.3027356453960768,1,2.5273688503221736
10,19-May-2017,1,13,stim.wav,1,19,5534,-4.786006060307609,1,2.5273688503221736
10,19-May-2017,1,13,stim.wav,1,20,6245,-5.603390626482396,1,2.5273688503221736
10,19-May-2017,1,13,stim.wav,1,21,7037,-1.161273566314067,1,2.5273688503221736
10,19-May-2017,1,13,stim.wav,1,22,7920,-10.59661746685775,1,2.5273688503221736
10,19-May-2017,1,13,stim.wav,1,23,8904,-1.4691762573287481,1,2.5273688503221736
10,19-May-2017,1,13,stim.wav,1,24,10000,0.4803538973906031,1,2.5273688503221736
10,19-May-2017,1,14,stim.wav,0,0,100,7.367611062511571,0,5.01252224629981
10,19-May-2017,1,14,stim.wav,0,1,191,-4.762788597300967,0,5.01252224629981
10,19-May-2017,1,14,stim.wav,0,2,293,-5.3864996365282565,0,5.01252224629981
10,19-May-2017,1,14,stim.wav,0,3,406,-0.6081659125028422,0,5.01252224629981
10,19-May-2017,1,14,stim.wav,0,4,533,-8.913066517884449,0,5.01252224629981
10,19-May-2017,1,14,stim.wav,0,5,673,-3.7311472049096874,0,5.01252224629981
10,19-May-2017,1,14,stim.wav,0,6,830,-1.5145194920089746,0,5.01252224629981
10,19-May-2017,1,14,stim.wav,0,7,1004,-7.916735288812358,0,5.01252224629981
10,19-May-2017,1,14,stim.wav,0,8,1199,-2.490909207333443,0,5.01252224629981
10,19-May-2017,1,14,stim.wav,0,9,1416,0.6177383524544369,0,5.01252224629981
10,19-May-2017,1,14,stim.wav,0,10,1657,3.526523962366299,0,5.01252224629981
10,19-May-2017,1,14,stim.wav,0,11,1926,2.0566175558897766,0,5.01252224629981
10,19-May-2017,1,14,stim.wav,0,12,2226,-1.5159522842148718,0,5.01252224629981
10,19-May-2017,1,14,stim.wav,0,13,2560,2.863846239130102,0,5.01252224629981
10,19-May-2017,1,14,stim.wav,0,14,2932,-4.398188708378087,0,5.01252224629981
10,19-May-2017,1,14,stim.wav,0,15,3346,0.29460344572257113,0,5.01252224629981
10,19-May-2017,1,14,stim.wav,0,16,3808,-2.925646050776571,0,5.01252224629981
10,19-May-2017,1,14,stim.wav,0,17,4322,12.04674886527924,0,5.01252224629981
10,19-May-2017,1,14,stim.wav,0,18,4895,9.000282812280025,0,5.01252224629981
10,19-May-2017,1,14,stim.wav,0,19,5534,2.2537315244428546,0,5.01252224629981
10,19-May-2017,1,14,stim.wav,0,20,6245,8.982770773132382,0,5.01252224629981
10,19-May-2017,1,14,stim.wav,0,21,7037,-8.557109723882364,0,5.01252224629981
10,19-May-2017,1,14,stim.wav,0,22,7920,-1.8579703167545367,0,5.01252224629981
10,19-May-2017,1,14,stim.wav,0,23,8904,2.683673360927571,0,5.01252224629981
10,19-May-2017,1,14,stim.wav,0,24,10000,-1.2477743335276383,0,5.01252224629981
10,19-May-2017,1,14,stim.wav,1,0,100,-4.177499017627788,1,5.01252224629981
10,19-May-2017,1,14,stim.wav,1,1,191,-1.2641137604298,1,5.01252224629981
10,19-May-2017,1,14,stim.wav,1,2,293,0.9235815773540452,1,5.01252224629981
10,19-May-2017,1,14,stim.wav,1,3,406,-4.609412176358253,1,5.01252224629981
10,19-May-2017,1,14,stim.wav,1,4,533,-1.7330113147071953,1,5.01252224629981
10,19-May-2017,1,14,stim.wav,1,5,673,-3.6219754737778858,1,5.01252224629981
10,19-May-2017,1,14,stim.wav,1,6,830,-0.23133230878832733,1,5.01252224629981
10,19-May-2017,1,14,stim.wav,1,7,1004,0.7647979273362832,1,5.01252224629981
10,19-May-2017,1,14,stim.wav,1,8,1199,7.479043151891789,1,5.01252224629981
10,19-May-2017,1,14,stim.wav,1,9,1416,-1.0890452676005573,1,5.01252224629981
10,19-May-2017,1,14,stim.wav,1,10,1657,1.3031980666673528,1,5.01252224629981
10,19-May-2017,1,14,stim.wav,1,11,1926,2.0465361484223292,1,5.01252224629981
10,19-May-2017,1,14,stim.wav,1,12,2226,-6.6570340019174035,1,5.01252224629981
10,19-May-2017,1,14,stim.wav,1,13,2560,-1.5369671553328468,1,5.01252224629981
10,19-May-2017,1,14,stim.wav,1,14,2932,-7.304551161601928,1,5.01252224629981
10,19-May-2017,1,14,stim.wav,1,15,3346,-3.4118039891722485,1,5.01252224629981
10,19-May-2017,1,14,stim.wav,1,16,3808,-5.088330977022439,1,5.01252224629981
10,19-May-2017,1,14,stim.wav,1,17,4322,4.576920465356132,1,5.01252224629981
10,19-May-2017,1,14,stim.wav,1,18,4895,-2.993096106713042,1,5.01252224629981
10,19-May-2017,1,14,stim.wav,1,19,5534,10.832985316817398,1,5.01252224629981
10,19-May-2017,1,14,stim.wav,1,20,6245,-7.4017880399627325,1,5.01252224629981
10,19-May-2017,1,14,stim.wav,1,21,7037,8.701474096612358,1,5.01252224629981
10,19-May-2017,1,14,stim.wav,1,22,7920,2.5116679137070803,1,5.01252224629981
10,19-May-2017,1,14,stim.wav,1,23,8904,-7.880226864196253,1,5.01252224629981
10,19-May-2017,1,14,stim.wav,1,24,10000,-1.8708118298143677,1,5.01252224629981
10,19-May-2017,1,15,stim.wav,0,0,100,10.123195539386174,1,0.9939273845193807
10,19-May-2017,1,15,stim.wav,0,1,191,-2.6778036168644275,1,0.9939273845193807
10,19-May-2017,1,15,stim.wav,0,2,293,1.2255426875314566,1,0.9939273845193807
10,19-May-2017,1,15,stim.wav,0,3,406,10.229955585879463,1,0.9939273845193807
10,19-May-2017,1,15,stim.wav,0,4,533,-5.60174766345297,1,0.9939273845193807
10,19-May-2017,1,15,stim.wav,0,5,673,-1.6130672802342625,1,0.9939273845193807
10,19-May-2017,1,15,stim.wav,0,6,830,2.488553730679848,1,0.9939273845193807
10,19-May-2017,1,15,stim.wav,0,7,1004,-4.709259407159613,1,0.9939273845193807
10,19-May-2017,1,15,stim.wav,0,8,1199,-12.349893797223055,1,0.9939273845193807
10,19-May-2017,1,15,stim.wav,0,9,1416,-1.698232282430785,1,0.9939273845193807
10,19-May-2017,1,15,stim.wav,0,10,1657,8.958510060276247,1,0.9939273845193807
10,19-May-2017,1,15,stim.wav,0,11,1926,6.147473839942178,1,0.9939273845193807
10,19-May-2017,1,15,stim.wav,0,12,2226,-1.7303470362343496,1,0.9939273845193807
10,19-May-2017,1,15,stim.wav,0,13,2560,0.6525620549596011,1,0.9939273845193807
10,19-May-2017,1,15,stim.wav,0,14,2932,-4.304481203763855,1,0.9939273845193807
10,19-May-2017,1,15,stim.wav,0,15,3346,4.354067145867653,1,0.9939273845193807
10,19-May-2017,1,15,stim.wav,0,16,3808,-1.260858458325656,1,0.9939273845193807
10,19-May-2017,1,15,stim.wav,0,17,4322,-0.9389487991543194,1,0.9939273845193807
10,19-May-2017,1,15,stim.wav,0,18,4895,2.8475329096807007,1,0.9939273845193807
10,19-May-2017,1,15,stim.wav,0,19,5534,-0.3770725925435719,1,0.9939273845193807
10,19-May-2017,1,15,stim.wav,0,20,6245,1.6837255277011214,1,0.9939273845193807
10,19-May-2017,1,15,stim.wav,0,21,7037,-2.136937347548337,1,0.9939273845193807
10,19-May-2017,1,15,stim.wav,0,22,7920,-0.41284198714316234,1,0.9939273845193807
10,19-May-2017,1,15,stim.wav,0,23,8904,5.034444229358637,1,0.9939273845193807
10,19-May-2017,1,15,stim.wav,0,24,10000,7.591418577765948,1,0.9939273845193807
10,19-May-2017,1,15,stim.wav,1,0,100,5.484977185475933,0,0.9939273845193807
10,19-May-2017,1,15,stim.wav,1,1,191,2.99057254094428,0,0.9939273845193807
10,19-May-2017,1,15,stim.wav,1,2,293,1.1410873725130306,0,0.9939273845193807
10,19-May-2017,1,15,stim.wav,1,3,406,0.21905763914739868,0,0.9939273845193807
10,19-May-2017,1,15,stim.wav,1,4,533,-2.5535217209951337,0,0.9939273845193807
10,19-May-2017,1,15,stim.wav,1,5,673,-6.60061861515759,0,0.9939273845193807
10,19-May-2017,1,15,stim.wav,1,6,830,2.2982914708532265,0,0.9939273845193807
10,19-May-2017,1,15,stim.wav,1,7,1004,-1.021029367244229,0,0.9939273845193807
10,19-May-2017,1,15,stim.wav,1,8,1199,-2.163861816349702,0,0.9939273845193807
10,19-May-2017,1,15,stim.wav,1,9,1416,4.013576920930405,0,0.9939273845193807
10,19-May-2017,1,15,stim.wav,1,10,1657,3.3743681881047776,0,0.9939273845193807
10,19-May-2017,1,15,stim.wav,1,11,1926,3.3208898601440975,0,0.9939273845193807
10,19-May-2017,1,15,stim.wav,1,12,2226,-3.04129135410058,0,0.9939273845193807
10,19-May-2017,1,15,stim.wav,1,13,2560,0.32870076146267385,0,0.9939273845193807
10,19-May-2017,1,15,stim.wav,1,14,2932,-8.724911521302722,0,0.9939273845193807
10,19-May-2017,1,15,stim.wav,1,15,3346,-1.8763833261349268,0,0.9939273845193807
10,19-May-2017,1,15,stim.wav,1,16,3808,-8.60161273707943,0,0.9939273845193807
10,19-May-2017,1,15,stim.wav,1,17,4322,3.7151571808612376,0,0.9939273845193807
10,19-May-2017,1,15,stim.wav,1,18,4895,3.359013091673118,0,0.9939273845193807
10,19-May-2017,1,15,stim.wav,1,19,5534,-4.096583835311393,0,0.9939273845193807
10,19-May-2017,1,15,stim.wav,1,20,6245,-0.37416486036794805,0,0.9939273845193807
10,19-May-2017,1,15,stim.wav,1,21,7037,2.5479838851859005,0,0.9939273845193807
10,19-May-2017,1,15,stim.wav,1,22,7920,-8.219012963809686,0,0.9939273845193807
10,19-May-2017,1,15,stim.wav,1,23,8904,2.828932466930536,0,0.9939273845193807
10,19-May-2017,1,15,stim.wav,1,24,10000,-3.167689936309265,0,0.9939273845193807
10,19-May-2017,1,16,stim.wav,0,0,100,-3.2073696013925854,0,0.9745367535216038
10,19-May-2017,1,16,stim.wav,0,1,191,-6.370129549356736,0,0.9745367535216038
10,19-May-2017,1,16,stim.wav,0,2,293,3.5504196254084737,0,0.9745367535216038
10,19-May-2017,1,16,stim.wav,0,3,406,-0.035604755415818465,0,0.9745367535216038
10,19-May-2017,1,16,stim.wav,0,4,533,-5.423017399717037,0,0.9745367535216038
10,19-May-2017,1,16,stim.wav,0,5,673,6.392693683534939,0,0.9745367535216038
10,19-May-2017,1,16,stim.wav,0,6,830,0.1942229550521939,0,0.9745367535216038
10,19-May-2017,1,16,stim.wav,0,7,1004,-0.700997858743525,0,0.9745367535216038
10,19-May-2017,1,16,stim.wav,0,8,1199,1.7609045028803125,0,0.9745367535216038
10,19-May-2017,1,16,stim.wav,0,9,1416,1.4630569025667213,0,0.9745367535216038
10,19-May-2017,1,16,stim.wav,0,10,1657,-4.043725798542106,0,0.9745367535216038
10,19-May-2017,1,16,stim.wav,0,11,1926,4.145110280141384,0,0.9745367535216038
10,19-May-2017,1,16,stim.wav,0,12,2226,7.014983524059697,0,0.9745367535216038
10,19-May-2017,1,16,stim.wav,0,13,2560,-8.516728562690695,0,0.9745367535216038
10,19-May-2017,1,16,stim.wav,0,14,2932,8.059747211934491,0,0.9745367535216038
10,19-May-2017,1,16,stim.wav,0,15,3346,3.920270960517236,0,0.9745367535216038
10,19-May-2017,1,16,stim.wav,0,16,3808,3.3132779464170454,0,0.9745367535216038
10,19-May-2017,1,16,stim.wav,0,17,4322,-0.07862981424838042,0,0.9745367535216038
10,19-May-2017,1,16,stim.wav,0,18,4895,-1.8429035175721435,0,0.9745367535216038
10,19-May-2017,1,16,stim.wav,0,19,5534,8.371741942743364,0,0.9745367535216038
10,19-May-2017,1,16,stim.wav,0,20,6245,2.3232973781612793,0,0.9745367535216038
10,19-May-2017,1,16,stim.wav,0,21,7037,0.8090117094885341,0,0.9745367535216038
10,19-May-2017,1,16,stim.wav,0,22,7920,-3.758708663987563,0,0.9745367535216038
10,19-May-2017,1,16,stim.wav,0,23,8904,8.204926837881318,0,0.9745367535216038
10,19-May-2017,1,16,stim.wav,0,24,10000,0.06951902411344264,0,0.9745367535216038
10,19-May-2017,1,16,stim.wav,1,0,100,2.0427260166020735,1,0.9745367535216038
10,19-May-2017,1,16,stim.wav,1,1,191,-7.36186592638025,1,0.9745367535216038
10,19-May-2017,1,16,stim.wav,1,2,293,4.477498042872796,1,0.9745367535216038
10,19-May-2017,1,16,stim.wav,1,3,406,-8.336161159518086,1,0.9745367535216038
10,19-May-2017,1,16,stim.wav,1,4,533,-8.099832318239631,1,0.9745367535216038
10,19-May-2017,1,16,stim.wav,1,5,673,-2.4564295424654365,1,0.9745367535216038
10,19-May-2017,1,16,stim.wav,1,6,830,6.943972673935839,1,0.9745367535216038
10,19-May-2017,1,16,stim.wav,1,7,1004,-3.6999012992518123,1,0.9745367535216038
10,19-May-2017,1,16,stim.wav,1,8,1199,-1.0317222359575102,1,0.9745367535216038
10,19-May-2017,1,16,stim.wav,1,9,1416,1.3374616633973337,1,0.9745367535216038
10,19-May-2017,1,16,stim.wav,1,10,1657,-8.925203453074428,1,0.9745367535216038
10,19-May-2017,1,16,stim.wav,1,11,1926,6.054631478271854,1,0.9745367535216038
10,19-May-2017,1,16,stim.wav,1,12,2226,4.882804846801637,1,0.9745367535216038
10,19-May-2017,1,16,stim.wav,1,13,2560,8.264209768266753,1,0.9745367535216038
10,19-May-2017,1,16,stim.wav,1,14,2932,0.5142308887277485,1,0.9745367535216038
10,19-May-2017,1,16,stim.wav,1,15,3346,-2.724559896368614,1,0.9745367535216038
10,19-May-2017,1,16,stim.wav,1,16,3808,4.148521308805448,1,0.9745367535216038
10,19-May-2017,1,16,stim.wav,1,17,4322,1.415535754991199,1,0.9745367535216038
10,19-May-2017,1,16,stim.wav,1,18,4895,0.3012935342800936,1,0.9745367535216038
10,19-May-2017,1,16,stim.wav,1,19,5534,-0.7072426239603478,1,0.9745367535216038
10,19-May-2017,1,16,stim.wav,1,20,6245,4.207292437771489,1,0.9745367535216038
10,19-May-2017,1,16,stim.wav,1,21,7037,2.032581908540953,1,0.9745367535216038
10,19-May-2017,1,16,stim.wav,1,22,7920,-3.357348612307564,1,0.9745367535216038
10,19-May-2017,1,16,stim.wav,1,23,8904,1.9260475226707623,1,0.9745367535216038
10,19-May-2017,1,16,stim.wav,1,24,10000,1.012906548845289,1,0.9745367535216038
10,19-May-2017,1,17,stim.wav,0,0,100,-0.3126992088819675,1,2.795346700157854
10,19-May-2017,1,17,stim.wav,0,1,191,4.293130747790608,1,2.795346700157854
10,19-May-2017,1,17,stim.wav,0,2,293,3.3686677477580824,1,2.795346700157854
10,19-May-2017,1,17,stim.wav,0,3,406,-1.164170022204785,1,2.795346700157854
10,19-May-2017,1,17,stim.wav,0,4,533,3.4428300467525332,1,2.795346700157854
10,19-May-2017,1,17,stim.wav,0,5,673,-7.043429498971555,1,2.795346700157854
10,19-May-2017,1,17,stim.wav,0,6,830,-3.0766885724093944,1,2.795346700157854
10,19-May-2017,1,17,stim.wav,0,7,1004,-3.467269968516655,1,2.795346700157854
10,19-May-2017,1,17,stim.wav,0,8,1199,0.6391532619223439,1,2.795346700157854
10,19-May-2017,1,17,stim.wav,0,9,1416,0.6070287206192998,1,2.795346700157854
10,19-May-2017,1,17,stim.wav,0,10,1657,3.950352325368693,1,2.795346700157854
10,19-May-2017,1,17,stim.wav,0,11,1926,8.978758130754509,1,2.795346700157854
10,19-May-2017,1,17,stim.wav,0,12,2226,-12.411275355428263,1,2.795346700157854
10,19-May-2017,1,17,stim.wav,0,13,2560,0.12716061679619065,1,2.795346700157854
10,19-May-2017,1,17,stim.wav,0,14,2932,3.2295638106184335,1,2.795346700157854
10,19-May-2017,1,17,stim.wav,0,15,3346,0.7153609323928396,1,2.795346700157854
10,19-May-2017,1,17,stim.wav,0,16,3808,5.1313347913459415,1,2.795346700157854
10,19-May-2017,1,17,stim.wav,0,17,4322,-10.31335167211202,1,2.795346700157854
10,19-May-2017,1,17,stim.wav,0,18,4895,4.4330932404780645,1,2.795346700157854
10,19-May-2017,1,17,stim.wav,0,19,5534,-11.131524299923505,1,2.795346700157854
10,19-May-2017,1,17,stim.wav,0,20,6245,-11.302658829328395,1,2.795346700157854
10,19-May-2017,1,17,stim.wav,0,21,7037,4.763509122383843,1,2.795346700157854
10,19-May-2017,1,17,stim.wav,0,22,7920,2.612312299682829,1,2.795346700157854
10,19-May-2017,1,17,stim.wav,0,23,8904,-1.6314042980680936,1,2.795346700157854
10,19-May-2017,1,17,stim.wav,0,24,10000,1.6663732368002364,1,2.795346700157854
10,19-May-2017,1,17,stim.wav,1,0,100,2.0145710885376538,0,2.795346700157854
10,19-May-2017,1,17,stim.wav,1,1,191,0.8066227246108869,0,2.795346700157854
10,19-May-2017,1,17,stim.wav,1,2,293,2.1046150184706742,0,2.795346700157854
10,19-May-2017,1,17,stim.wav,1,3,406,-9.087045939259383,0,2.795346700157854
10,19-May-2017,1,17,stim.wav,1,4,533,5.699345833642896,0,2.795346700157854
10,19-May-2017,1,17,stim.wav,1,5,673,-4.953747626187075,0,2.795346700157854
10,19-May-2017,1,17,stim.wav,1,6,830,1.6151083486682871,0,2.795346700157854
10,19-May-2017,1,17,stim.wav,1,7,1004,4.07282949937814,0,2.795346700157854
10,19-May-2017,1,17,stim.wav,1,8,1199,-6.890455005192621,0,2.795346700157854
10,19-May-2017,1,17,stim.wav,1,9,1416,0.16372518732493407,0,2.795346700157854
10,19-May-2017,1,17,stim.wav,1,10,1657,-2.7093533964167786,0,2.795346700157854
10,19-May-2017,1,17,stim.wav,1,11,1926,-7.009820573825422,0,2.795346700157854
10,19-May-2017,1,17,stim.wav,1,12,2226,1.216189922515533,0,2.795346700157854
10,19-May-2017,1,17,stim.wav,1,13,2560,1.9055700098909514,0,2.795346700157854
10,19-May-2017,1,17,stim.wav,1,14,2932,-3.9066368349078706,0,2.795346700157854
10,19-May-2017,1,17,stim.wav,1,15,3346,5.571194478729435,0,2.795346700157854
10,19-May-2017,1,17,stim.wav,1,16,3808,-0.5146268576554469,0,2.795346700157854
10,19-May-2017,1,17,stim.wav,1,17,4322,1.872380912080106,0,2.795346700157854
10,19-May-2017,1,17,stim.wav,1,18,4895,-1.2584029559832999,0,2.795346700157854
10,19-May-2017,1,17,stim.wav,1,19,5534,7.134056356520954,0,2.795346700157854
10,19-May-2017,1,17,stim.wav,1,20,6245,-0.614931423277288,0,2.795346700157854
10,19-May-2017,1,17,stim.wav,1,21,7037,-3.791634688949124,0,2.795346700157854
10,19-May-2017,1,17,stim.wav,1,22,7920,-6.944659107383257,0,2.795346700157854
10,19-May-2017,1,17,stim.wav,1,23,8904,-3.9912989662783245,0,2.795346700157854
10,19-May-2017,1,17,stim.wav,1,24,10000,-3.2638225974039154,0,2.795346700157854
10,19-May-2017,1,18,stim.wav,0,0,100,3.1062373908391407,0,1.782224034693622
10,19-May-2017,1,18,stim.wav,0,1,191,3.013368296496993,0,1.782224034693622
10,19-May-2017,1,18,stim.wav,0,2,293,-4.030470233410002,0,1.782224034693622
10,19-May-2017,1,18,stim.wav,0,3,406,3.0999292403988736,0,1.782224034693622
10,19-May-2017,1,18,stim.wav,0,4,533,0.7071653644705383,0,1.782224034693622
10,19-May-2017,1,18,stim.wav,0,5,673,1.0553567846799108,0,1.782224034693622
10,19-May-2017,1,18,stim.wav,0,6,830,5.390700095031562,0,1.782224034693622
10,19-May-2017,1,18,stim.wav,0,7,1004,-0.945722927091406,0,1.782224034693622
10,19-May-2017,1,18,stim.wav,0,8,1199,-4.138678579145118,0,1.782224034693622
10,19-May-2017,1,18,stim.wav,0,9,1416,5.839664760764665,0,1.782224034693622
10,19-May-2017,1,18,stim.wav,0,10,1657,7.489950245980374,0,1.782224034693622
10,19-May-2017,1,18,stim.wav,0,11,1926,1.1655841593575837,0,1.782224034693622
10,19-May-2017,1,18,stim.wav,0,12,2226,-1.3280076959414375,0,1.782224034693622
10,19-May-2017,1,18,stim.wav,0,13,2560,4.13367250664238,0,1.782224034693622
10,19-May-2017,1,18,stim.wav,0,14,2932,-0.4216452645655373,0,1.782224034693622
10,19-May-2017,1,18,stim.wav,0,15,3346,4.913777881197935,0,1.782224034693622
10,19-May-2017,1,18,stim.wav,0,16,3808,0.48701504631183273,0,1.782224034693622
10,19-May-2017,1,18,stim.wav,0,17,4322,-0.9125780687491792,0,1.782224034693622
10,19-May-2017,1,18,stim.wav,0,18,4895,2.430643162553794,0,1.782224034693622
10,19-May-2017,1,18,stim.wav,0,19,5534,9.730261862746753,0,1.782224034693622
10,19-May-2017,1,18,stim.wav,0,20,6245,0.6243133457347685,0,1.782224034693622
10,19-May-2017,1,18,stim.wav,0,21,7037,-7.687020959309962,0,1.782224034693622
10,19-May-2017,1,18,stim.wav,0,22,7920,-0.8308310463580525,0,1.782224034693622
10,19-May-2017,1,18,stim.wav,0,23,8904,0.9949780458496571,0,1.782224034693622
10,19-May-2017,1,18,stim.wav,0,24,10000,-1.775284783523516,0,1.782224034693622
10,19-May-2017,1,18,stim.wav,1,0,100,5.451849009060449,1,1.782224034693622
10,19-May-2017,1,18,stim.wav,1,1,191,-0.7977039366346615,1,1.782224034693622
10,19-May-2017,1,18,stim.wav,1,2,293,-2.453936703216725,1,1.782224034693622
10,19-May-2017,1,18,stim.wav,1,3,406,0.03918052527799884,1,1.782224034693622
10,19-May-2017,1,18,stim.wav,1,4,533,9.529702466750841,1,1.782224034693622
10,19-May-2017,1,18,stim.wav,1,5,673,-1.558529717926098,1,1.782224034693622
10,19-May-2017,1,18,stim.wav,1,6,830,-1.0177598502732328,1,1.782224034693622
10,19-May-2017,1,18,stim.wav,1,7,1004,2.2337097535011408,1,1.782224034693622
10,19-May-2017,1,18,stim.wav,1,8,1199,2.0605332196793484,1,1.782224034693622
10,19-May-2017,1,18,stim.wav,1,9,1416,1.635423864057688,1,1.782224034693622
10,19-May-2017,1,18,stim.wav,1,10,1657,3.8187972575810814,1,1.782224034693622
10,19-May-2017,1,18,stim.wav,1,11,1926,-1.167846451603352,1,1.782224034693622
10,19-May-2017,1,18,stim.wav,1,12,2226,2.868754308650923,1,1.782224034693622
10,19-May-2017,1,18,stim.wav,1,13,2560,-3.98601561411553,1,1.782224034693622
10,19-May-2017,1,18,stim.wav,1,14,2932,1.7601504688491953,1,1.782224034693622
10,19-May-2017,1,18,stim.wav,1,15,3346,0.2470961166420962,1,1.782224034693622
10,19-May-2017,1,18,stim.wav,1,16,3808,5.83478207395259,1,1.782224034693622
10,19-May-2017,1,18,stim.wav,1,17,4322,0.43476909618559334,1,1.782224034693622
10,19-May-2017,1,18,stim.wav,1,18,4895,8.897039538632754,1,1.782224034693622
10,19-May-2017,1,18,stim.wav,1,19,5534,1.5594261936581646,1,1.782224034693622
10,19-May-2017,1,18,stim.wav,1,20,6245,-1.9294303143759473,1,1.782224034693622
10,19-May-2017,1,18,stim.wav,1,21,7037,-1.4229428785266625,1,1.782224034693622
10,19-May-2017,1,18,stim.wav,1,22,7920,5.007018020688233,1,1.782224034693622
10,19-May-2017,1,18,stim.wav,1,23,8904,6.263582976012336,1,1.782224034693622
10,19-May-2017,1,18,stim.wav,1,24,10000,-0.30497081409396076,1,1.782224034693622
10,19-May-2017,1,19,stim.wav,0,0,100,5.06267108672828,1,0.8201797631029936
10,19-May-2017,1,19,stim.wav,0,1,191,-1.869022833375231,1,0.8201797631029936
10,19-May-2017,1,19,stim.wav,0,2,293,-0.4818813525627037,1,0.8201797631029936
10,19-May-2017,1,19,stim.wav,0,3,406,-1.2506764329161848,1,0.8201797631029936
10,19-May-2017,1,19,stim.wav,0,4,533,3.9690071599883088,1,0.8201797631029936
10,19-May-2017,1,19,stim.wav,0,5,673,3.5609768629359877,1,0.8201797631029936
10,19-May-2017,1,19,stim.wav,0,6,830,2.278426425708948,1,0.8201797631029936
10,19-May-2017,1,19,stim.wav,0,7,1004,8.026189826399163,1,0.8201797631029936
10,19-May-2017,1,19,stim.wav,0,8,1199,5.925544827732393,1,0.8201797631029936
10,19-May-2017,1,19,stim.wav,0,9,1416,4.0695543804398415,1,0.8201797631029936
10,19-May-2017,1,19,stim.wav,0,10,1657,-1.3332548211333919,1,0.8201797631029936
10,19-May-2017,1,19,stim.wav,0,11,1926,-0.039389014139934654,1,0.8201797631029936
10,19-May-2017,1,19,stim.wav,0,12,2226,8.7671273310932,1,0.8201797631029936
10,19-May-2017,1,19,stim.wav,0,13,2560,-6.756977654315941,1,0.8201797631029936
10,19-May-2017,1,19,stim.wav,0,14,2932,8.209886604829936,1,0.8201797631029936
10,19-May-2017,1,19,stim.wav,0,15,3346,-6.491862132330986,1,0.8201797631029936
10,19-May-2017,1,19,stim.wav,0,16,3808,3.0416208673607863,1,0.8201797631029936
10,19-May-2017,1,19,stim.wav,0,17,4322,-2.832381330127288,1,0.8201797631029936
10,19-May-2017,1,19,stim.wav,0,18,4895,-1.4964068679424658,1,0.8201797631029936
10,19-May-2017,1,19,stim.wav,0,19,5534,-8.578970422044598,1,0.8201797631029936
10,19-May-2017,1,19,stim.wav,0,20,6245,6.7185175879754535,1,0.8201797631029936
10,19-May-2017,1,19,stim.wav,0,21,7037,4.951877115656382,1,0.8201797631029936
10,19-May-2017,1,19,stim.wav,0,22,7920,-5.679961488267605,1,0.8201797631029936
10,19-May-2017,1,19,stim.wav,0,23,8904,1.7995903672447775,1,0.8201797631029936
10,19-May-2017,1,19,stim.wav,0,24,10000,0.48055503989226916,1,0.8201797631029936
10,19-May-2017,1,19,stim.wav,1,0,100,2.7042087282072864,0,0.8201797631029936
10,19-May-2017,1,19,stim.wav,1,1,191,2.7652059136359823,0,0.8201797631029936
10,19-May-2017,1,19,stim.wav,1,2,293,-2.8371260423687077,0,0.8201797631029936
10,19-May-2017,1,19,stim.wav,1,3,406,3.707094731090854,0,0.8201797631029936
10,19-May-2017,1,19,stim.wav,1,4,533,-3.1618306768829445,0,0.8201797631029936
10,19-May-2017,1,19,stim.wav,1,5,673,0.4185408019224724,0,0.8201797631029936
10,19-May-2017,1,19,stim.wav,1,6,830,-2.0731168003537372,0,0.8201797631029936
10,19-May-2017,1,19,stim.wav,1,7,1004,-1.9499754120061303,0,0.8201797631029936
10,19-May-2017,1,19,stim.wav,1,8,1199,-1.0390023627710996,0,0.8201797631029936
10,19-May-2017,1,19,stim.wav,1,9,1416,-3.097246104663061,0,0.8201797631029936
10,19-May-2017,1,19,stim.wav,1,10,1657,6.329607061989897,0,0.8201797631029936
10,19-May-2017,1,19,stim.wav,1,11,1926,2.8417986801157324,0,0.8201797631029936
10,19-May-2017,1,19,stim.wav,1,12,2226,-2.486471463262986,0,0.8201797631029936
10,19-May-2017,1,19,stim.wav,1,13,2560,4.4226099284137526,0,0.8201797631029936
10,19-May-2017,1,19,stim.wav,1,14,2932,-2.368204945121916,0,0.8201797631029936
10,19-May-2017,1,19,stim.wav,1,15,3346,-3.6562231854861342,0,0.8201797631029936
10,19-May-2017,1,19,stim.wav,1,16,3808,0.8583264352590114,0,0.8201797631029936
10,19-May-2017,1,19,stim.wav,1,17,4322,-2.8527548016918667,0,0.8201797631029936
10,19-May-2017,1,19,stim.wav,1,18,4895,-0.10037251974020509,0,0.8201797631029936
10,19-May-2017,1,19,stim.wav,1,19,5534,1.777369264266134,0,0.8201797631029936
10,19-May-2017,1,19,stim.wav,1,20,6245,1.0739318150069297,0,0.8201797631029936
10,19-May-2017,1,19,stim.wav,1,21,7037,2.8168247944870672,0,0.8201797631029936
10,19-May-2017,1,19,stim.wav,1,22,7920,1.9174257172627873,0,0.8201797631029936
10,19-May-2017,1,19,stim.wav,1,23,8904,3.274060974399295,0,0.8201797631029936
10,19-May-2017,1,19,stim.wav,1,24,10000,3.620458559435514,0,0.8201797631029936
10,19-May-2017,1,20,stim.wav,0,0,100,-0.28470426455382647,1,4.610039213700642
10,19-May-2017,1,20,stim.wav,0,1,191,0.9670983595318228,1,4.610039213700642
10,19-May-2017,1,20,stim.wav,0,2,293,6.115388807994268,1,4.610039213700642
10,19-May-2017,1,20,stim.wav,0,3,406,-6.699923495670495,1,4.610039213700642
10,19-May-2017,1,20,stim.wav,0,4,533,-4.178496764441481,1,4.610039213700642
10,19-May-2017,1,20,stim.wav,0,5,673,-5.636239571416521,1,4.610039213700642
10,19-May-2017,1,20,stim.wav,0,6,830,-1.8532688768463217,1,4.610039213700642
10,19-May-2017,1,20,stim.wav,0,7,1004,-0.1431229623289674,1,4.610039213700642
10,19-May-2017,1,20,stim.wav,0,8,1199,-11.693866067685917,1,4.610039213700642
10,19-May-2017,1,20,stim.wav,0,9,1416,4.336047891343285,1,4.610039213700642
10,19-May-2017,1,20,stim.wav,0,10,1657,6.097170489137071,1,4.610039213700642
10,19-May-2017,1,20,stim.wav,0,11,1926,-0.8886641847316412,1,4.610039213700642
10,19-May-2017,1,20,stim.wav,0,12,2226,-5.348871942367434,1,4.610039213700642
10,19-May-2017,1,20,stim.wav,0,13,2560,6.078500100344172,1,4.610039213700642
10,19-May-2017,1,20,stim.wav,0,14,2932,-3.8861586311977447,1,4.610039213700642
10,19-May-2017,1,20,stim.wav,0,15,3346,-3.3624696399912235,1,4.610039213700642
10,19-May-2017,1,20,stim.wav,0,16,3808,-0.46373864721256264,1,4.610039213700642
10,19-May-2017,1,20,stim.wav,0,17,4322,5.077426858797378,1,4.610039213700642
10,19-May-2017,1,20,stim.wav,0,18,4895,2.8151729933559917,1,4.610039213700642
10,19-May-2017,1,20,stim.wav,0,19,5534,3.189633232277655,1,4.610039213700642
10,19-May-2017,1,20,stim.wav,0,20,6245,1.5831521830111863,1,4.610039213700642
10,19-May-2017,1,20,stim.wav,0,21,7037,-1.8759832027642327,1,4.610039213700642
10,19-May-2017,1,20,stim.wav,0,22,7920,1.8269982473131288,1,4.610039213700642
10,19-May-2017,1,20,stim.wav,0,23,8904,-0.9947883805102737,1,4.610039213700642
10,19-May-2017,1,20,stim.wav,0,24,10000,6.247435626359517,1,4.610039213700642
10,19-May-2017,1,20,stim.wav,1,0,100,-3.0388721865280743,0,4.610039213700642
10,19-May-2017,1,20,stim.wav,1,1,191,2.939984068860273,0,4.610039213700642
10,19-May-2017,1,20,stim.wav,1,2,293,-2.803985968347606,0,4.610039213700642
10,19-May-2017,1,20,stim.wav,1,3,406,2.2620024759772943,0,4.610039213700642
10,19-May-2017,1,20,stim.wav,1,4,533,-7.226461255978464,0,4.610039213700642
10,19-May-2017,1,20,stim.wav,1,5,673,-3.518002661745813,0,4.610039213700642
10,19-May-2017,1,20,stim.wav,1,6,830,-0.36782498221349186,0,4.610039213700642
10,19-May-2017,1,20,stim.wav,1,7,1004,-10.03406525459811,0,4.610039213700642
10,19-May-2017,1,20,stim.wav,1,8,1199,2.9022095427228907,0,4.610039213700642
10,19-May-2017,1,20,stim.wav,1,9,1416,-0.3291207367424423,0,4.610039213700642
10,19-May-2017,1,20,stim.wav,1,10,1657,-7.930039506165871,0,4.610039213700642
10,19-May-2017,1,20,stim.wav,1,11,1926,-4.916561807210195,0,4.610039213700642
10,19-May-2017,1,20,stim.wav,1,12,2226,-9.871529554079181,0,4.610039213700642
10,19-May-2017,1,20,stim.wav,1,13,2560,-2.253930975252934,0,4.610039213700642
10,19-May-2017,1,20,stim.wav,1,14,2932,-8.564867909193849,0,4.610039213700642
10,19-May-2017,1,20,stim.wav,1,15,3346,-4.557560703052152,0,4.610039213700642
10,19-May-2017,1,20,stim.wav,1,16,3808,-7.421341892503916,0,4.610039213700642
10,19-May-2017,1,20,stim.wav,1,17,4322,6.3817443458064504,0,4.610039213700642
10,19-May-2017,1,20,stim.wav,1,18,4895,-2.4374224869289334,0,4.610039213700642
10,19-May-2017,1,20,stim.wav,1,19,5534,-5.8890146146469675,0,4.610039213700642
10,19-May-2017,1,20,stim.wav,1,20,6245,-10.110072144844196,0,4.610039213700642
10,19-May-2017,1,20,stim.wav,1,21,7037,10.508487619501746,0,4.610039213700642
10,19-May-2017,1,20,stim.wav,1,22,7920,5.107278668606721,0,4.610039213700642
10,19-May-2017,1,20,stim.wav,1,23,8904,6.7768180317715245,0,4.610039213700642
10,19-May-2017,1,20,stim.wav,1,24,10000,3.647945715520696,0,4.610039213700642
10,19-May-2017,1,21,stim.wav,0,0,100,3.199194881974037,0,3.441200318307687
10,19-May-2017,1,21,stim.wav,0,1,191,2.4282312090100193,0,3.441200318307687
10,19-May-2017,1,21,stim.wav,0,2,293,0.9560712240087952,0,3.441200318307687
10,19-May-2017,1,21,stim.wav,0,3,406,1.2537453146956148,0,3.441200318307687
10,19-May-2017,1,21,stim.wav,0,4,533,0.44982970295354596,0,3.441200318307687
10,19-May-2017,1,21,stim.wav,0,5,673,-3.515490688591087,0,3.441200318307687
10,19-May-2017,1,21,stim.wav,0,6,830,-5.517189199460148,0,3.441200318307687
10,19-May-2017,1,21,stim.wav,0,7,1004,-7.0558552999453115,0,3.441200318307687
10,19-May-2017,1,21,stim.wav,0,8,1199,6.084251120811758,0,3.441200318307687
10,19-May-2017,1,21,stim.wav,0,9,1416,-6.001880112445242,0,3.441200318307687
10,19-May-2017,1,21,stim.wav,0,10,1657,-1.9716776185565812,0,3.441200318307687
10,19-May-2017,1,21,stim.wav,0,11,1926,-11.189789607959028,0,3.441200318307687
10,19-May-2017,1,21,stim.wav,0,12,2226,10.562255490035486,0,3.441200318307687
10,19-May-2017,1,21,stim.wav,0,13,2560,0.8610136318359808,0,3.441200318307687
10,19-May-2017,1,21,stim.wav,0,14,2932,-8.509253556547424,0,3.441200318307687
10,19-May-2017,1,21,stim.wav,0,15,3346,1.919107604476333,0,3.441200318307687
10,19-May-2017,1,21,stim.wav,0,16,3808,3.2211308019762255,0,3.441200318307687
10,19-May-2017,1,21,stim.wav,0,17,4322,-3.743764228909341,0,3.441200318307687
10,19-May-2017,1,21,stim.wav,0,18,4895,4.267587691937456,0,3.441200318307687
10,19-May-2017,1,21,stim.wav,0,19,5534,-6.8272256177238795,0,3.441200318307687
10,19-May-2017,1,21,stim.wav,0,20,6245,-11.783870063583686,0,3.441200318307687
10,19-May-2017,1,21,stim.wav,0,21,7037,3.5871966750054125,0,3.441200318307687
10,19-May-2017,1,21,stim.wav,0,22,7920,0.03505872861627765,0,3.441200318307687
10,19-May-2017,1,21,stim.wav,0,23,8904,10.38820850342075,0,3.441200318307687
10,19-May-2017,1,21,stim.wav,0,24,10000,-1.2214452650428504,0,3.441200318307687
10,19-May-2017,1,21,stim.wav,1,0,100,-0.9308298003210049,1,3.441200318307687
10,19-May-2017,1,21,stim.wav,1,1,191,3.8799159596745527,1,3.441200318307687
10,19-May-2017,1,21,stim.wav,1,2,293,-4.116562816490358,1,3.441200318307687
10,19-May-2017,1,21,stim.wav,1,3,406,-4.975245292634286,1,3.441200318307687
10,19-May-2017,1,21,stim.wav,1,4,533,3.610813584009188,1,3.441200318307687
10,19-May-2017,1,21,stim.wav,1,5,673,-0.34669403736255633,1,3.441200318307687
10,19-May-2017,1,21,stim.wav,1,6,830,-0.5250129032164816,1,3.441200318307687
10,19-May-2017,1,21,stim.wav,1,7,1004,-0.16612423296973117,1,3.441200318307687
10,19-May-2017,1,21,stim.wav,1,8,1199,-4.265261746942034,1,3.441200318307687
10,19-May-2017,1,21,stim.wav,1,9,1416,-1.6464245957527015,1,3.441200318307687
10,19-May-2017,1,21,stim.wav,1,10,1657,-4.139622617903919,1,3.441200318307687
10,19-May-2017,1,21,stim.wav,1,11,1926,-0.9701062928277624,1,3.441200318307687
10,19-May-2017,1,21,stim.wav,1,12,2226,2.792724754858022,1,3.441200318307687
10,19-May-2017,1,21,stim.wav,1,13,2560,3.322551104322724,1,3.441200318307687
10,19-May-2017,1,21,stim.wav,1,14,2932,2.229486316321499,1,3.441200318307687
10,19-May-2017,1,21,stim.wav,1,15,3346,-5.18555655329633,1,3.441200318307687
10,19-May-2017,1,21,stim.wav,1,16,3808,6.168923337777725,1,3.441200318307687
10,19-May-2017,1,21,stim.wav,1,17,4322,2.3880974687415177,1,3.441200318307687
10,19-May-2017,1,21,stim.wav,1,18,4895,-9.256346461340955,1,3.441200318307687
10,19-May-2017,1,21,stim.wav,1,19,5534,-1.3183929396390988,1,3.441200318307687
10,19-May-2017,1,21,stim.wav,1,20,6245,-1.6385950012744346,1,3.441200318307687
10,19-May-2017,1,21,stim.wav,1,21,7037,-9.772031432333193,1,3.441200318307687
10,19-May-2017,1,21,stim.wav,1,22,7920,3.2868395592378477,1,3.441200318307687
10,19-May-2017,1,21,stim.wav,1,23,8904,0.3718074713918871,1,3.441200318307687
10,19-May-2017,1,21,stim.wav,1,24,10000,1.6756503021089237,1,3.441200318307687
10,19-May-2017,1,22,stim.wav,0,0,100,1.9190986751344608,0,8.753158273228696
10,19-May-2017,1,22,stim.wav,0,1,191,0.13046395487247367,0,8.753158273228696
10,19-May-2017,1,22,stim.wav,0,2,293,-1.734541605136247,0,8.753158273228696
10,19-May-2017,1,22,stim.wav,0,3,406,-2.9126958741606273,0,8.753158273228696
10,19-May-2017,1,22,stim.wav,0,4,533,8.734510717136649,0,8.753158273228696
10,19-May-2017,1,22,stim.wav,0,5,673,-0.018012434277695877,0,8.753158273228696
10,19-May-2017,1,22,stim.wav,0,6,830,-1.09847967345661,0,8.753158273228696
10,19-May-2017,1,22,stim.wav,0,7,1004,-0.041346361606876936,0,8.753158273228696
10,19-May-2017,1,22,stim.wav,0,8,1199,0.14311041345537423,0,8.753158273228696
10,19-May-2017,1,22,stim.wav,0,9,1416,-5.67045540544734,0,8.753158273228696
10,19-May-2017,1,22,stim.wav,0,10,1657,1.2401955576825343,0,8.753158273228696
10,19-May-2017,1,22,stim.wav,0,11,1926,-4.090186718631845,0,8.753158273228696
10,19-May-2017,1,22,stim.wav,0,12,2226,-1.6004674574814821,0,8.753158273228696
10,19-May-2017,1,22,stim.wav,0,13,2560,-3.7638487629009654,0,8.753158273228696
10,19-May-2017,1,22,stim.wav,0,14,2932,-12.163231896759362,0,8.753158273228696
10,19-May-2017,1,22,stim.wav,0,15,3346,-1.8667719060602335,0,8.753158273228696
10,19-May-2017,1,22,stim.wav,0,16,3808,8.608853615235116,0,8.753158273228696
10,19-May-2017,1,22,stim.wav,0,17,4322,4.324154594107152,0,8.753158273228696
10,19-May-2017,1,22,stim.wav,0,18,4895,-6.5963804561622545,0,8.753158273228696
10,19-May-2017,1,22,stim.wav,0,19,5534,-10.454470179324591,0,8.753158273228696
10,19-May-2017,1,22,stim.wav,0,20,6245,-2.4865566771151357,0,8.753158273228696
10,19-May-2017,1,22,stim.wav,0,21,7037,-2.5498223217391707,0,8.753158273228696
10,19-May-2017,1,22,stim.wav,0,22,7920,0.23757137561203664,0,8.753158273228696
10,19-May-2017,1,22,stim.wav,0,23,8904,-4.016471632839132,0,8.753158273228696
10,19-May-2017,1,22,stim.wav,0,24,10000,-12.252703610755034,0,8.753158273228696
10,19-May-2017,1,22,stim.wav,1,0,100,-2.2665446617419462,1,8.753158273228696
10,19-May-2017,1,22,stim.wav,1,1,191,-1.3606617892945354,1,8.753158273228696
10,19-May-2017,1,22,stim.wav,1,2,293,-2.0153837956392167,1,8.753158273228696
10,19-May-2017,1,22,stim.wav,1,3,406,6.418234754496161,1,8.753158273228696
10,19-May-2017,1,22,stim.wav,1,4,533,4.074854387871044,1,8.753158273228696
10,19-May-2017,1,22,stim.wav,1,5,673,-2.4722362808783855,1,8.753158273228696
10,19-May-2017,1,22,stim.wav,1,6,830,11.388268753774316,1,8.753158273228696
10,19-May-2017,1,22,stim.wav,1,7,1004,-0.3651543019721976,1,8.753158273228696
10,19-May-2017,1,22,stim.wav,1,8,1199,-6.8925189839854575,1,8.753158273228696
10,19-May-2017,1,22,stim.wav,1,9,1416,-1.0774189567669163,1,8.753158273228696
10,19-May-2017,1,22,stim.wav,1,10,1657,-4.016916651349588,1,8.753158273228696
10,19-May-2017,1,22,stim.wav,1,11,1926,-2.464857250945393,1,8.753158273228696
10,19-May-2017,1,22,stim.wav,1,12,2226,3.9705513441326827,1,8.753158273228696
10,19-May-2017,1,22,stim.wav,1,13,2560,1.7216571642666976,1,8.753158273228696
10,19-May-2017,1,22,stim.wav,1,14,2932,-6.0492432135585,1,8.753158273228696
10,19-May-2017,1,22,stim.wav,1,15,3346,5.324985233800312,1,8.753158273228696
10,19-May-2017,1,22,stim.wav,1,16,3808,0.7986539523818155,1,8.753158273228696
10,19-May-2017,1,22,stim.wav,1,17,4322,-9.930974683509849,1,8.753158273228696
10,19-May-2017,1,22,stim.wav,1,18,4895,-0.5122203675881697,1,8.753158273228696
10,19-May-2017,1,22,stim.wav,1,19,5534,3.0138021235585963,1,8.753158273228696
10,19-May-2017,1,22,stim.wav,1,20,6245,6.756405928262758,1,8.753158273228696
10,19-May-2017,1,22,stim.wav,1,21,7037,-6.629268630902083,1,8.753158273228696
10,19-May-2017,1,22,stim.wav,1,22,7920,-0.48009420080071263,1,8.753158273228696
10,19-May-2017,1,22,stim.wav,1,23,8904,-2.6364159642569476,1,8.753158273228696
10,19-May-2017,1,22,stim.wav,1,24,10000,-4.920472483091613,1,8.753158273228696
10,19-May-2017,1,23,stim.wav,0,0,100,-3.0119443504410266,1,3.5237991787771157
10,19-May-2017,1,23,stim.wav,0,1,191,1.7761786907037578,1,3.5237991787771157
10,19-May-2017,1,23,stim.wav,0,2,293,-7.65103168014703,1,3.5237991787771157
10,19-May-2017,1,23,stim.wav,0,3,406,7.138011126271828,1,3.5237991787771157
10,19-May-2017,1,23,stim.wav,0,4,533,-2.013429418666605,1,3.5237991787771157
10,19-May-2017,1,23,stim.wav,0,5,673,-9.255252155478075,1,3.5237991787771157
10,19-May-2017,1,23,stim.wav,0,6,830,0.39998089567263995,1,3.5237991787771157
10,19-May-2017,1,23,stim.wav,0,7,1004,2.7556186821755286,1,3.5237991787771157
10,19-May-2017,1,23,stim.wav,0,8,1199,-5.990769395004939,1,3.5237991787771157
10,19-May-2017,1,23,stim.wav,0,9,1416,-3.090333755427407,1,3.5237991787771157
10,19-May-2017,1,23,stim.wav,0,10,1657,-5.499151270419025,1,3.5237991787771157
10,19-May-2017,1,23,stim.wav,0,11,1926,-3.3489750749954554,1,3.5237991787771157
10,19-May-2017,1,23,stim.wav,0,12,2226,1.584835281030407,1,3.5237991787771157
10,19-May-2017,1,23,stim.wav,0,13,2560,-3.668718365785415,1,3.5237991787771157
10,19-May-2017,1,23,stim.wav,0,14,2932,2.323541734571446,1,3.5237991787771157
10,19-May-2017,1,23,stim.wav,0,15,3346,1.1597957798690153,1,3.5237991787771157
10,19-May-2017,1,23,stim.wav,0,16,3808,3.3905224349268903,1,3.5237991787771157
10,19-May-2017,1,23,stim.wav,0,17,4322,-3.145068437846417,1,3.5237991787771157
10,19-May-2017,1,23,stim.wav,0,18,4895,3.487324196754905,1,3.5237991787771157
10,19-May-2017,1,23,stim.wav,0,19,5534,3.6454669500147716,1,3.5237991787771157
10,19-May-2017,1,23,stim.wav,0,20,6245,-7.732692544348075,1,3.5237991787771157
10,19-May-2017,1,23,stim.wav,0,21,7037,-2.9942557396984393,1,3.5237991787771157
10,19-May-2017,1,23,stim.wav,0,22,7920,11.532200329756183,1,3.5237991787771157
10,19-May-2017,1,23,stim.wav,0,23,8904,7.8517293331107485,1,3.5237991787771157
10,19-May-2017,1,23,stim.wav,0,24,10000,2.4458150246934975,1,3.5237991787771157
10,19-May-2017,1,23,stim.wav,1,0,100,4.825932275420448,0,3.5237991787771157
10,19-May-2017,1,23,stim.wav,1,1,191,-3.7233819495030818,0,3.5237991787771157
10,19-May-2017,1,23,stim.wav,1,2,293,-0.12702950746470423,0,3.5237991787771157
10,19-May-2017,1,23,stim.wav,1,3,406,-2.118800230430917,0,3.5237991787771157
10,19-May-2017,1,23,stim.wav,1,4,533,-3.113947697343633,0,3.5237991787771157
10,19-May-2017,1,23,stim.wav,1,5,673,3.8909006346924055,0,3.5237991787771157
10,19-May-2017,1,23,stim.wav,1,6,830,-6.408039018038277,0,3.5237991787771157
10,19-May-2017,1,23,stim.wav,1,7,1004,-1.2272099521818982,0,3.5237991787771157
10,19-May-2017,1,23,stim.wav,1,8,1199,-4.084205000597371,0,3.5237991787771157
10,19-May-2017,1,23,stim.wav,1,9,1416,4.956539672423485,0,3.5237991787771157
10,19-May-2017,1,23,stim.wav,1,10,1657,6.121287117840474,0,3.5237991787771157
10,19-May-2017,1,23,stim.wav,1,11,1926,7.695593295665243,0,3.5237991787771157
10,19-May-2017,1,23,stim.wav,1,12,2226,3.009109367039268,0,3.5237991787771157
10,19-May-2017,1,23,stim.wav,1,13,2560,-5.046734871974888,0,3.5237991787771157
10,19-May-2017,1,23,stim.wav,1,14,2932,6.523308568048946,0,3.5237991787771157
10,19-May-2017,1,23,stim.wav,1,15,3346,-2.395382048785538,0,3.5237991787771157
10,19-May-2017,1,23,stim.wav,1,16,3808,-3.1788964436577762,0,3.5237991787771157
10,19-May-2017,1,23,stim.wav,1,17,4322,7.059732031270565,0,3.5237991787771157
10,19-May-2017,1,23,stim.wav,1,18,4895,-7.177845646049299,0,3.5237991787771157
10,19-May-2017,1,23,stim.wav,1,19,5534,-6.869524623052814,0,3.5237991787771157
10,19-May-2017,1,23,stim.wav,1,20,6245,-0.9570725995196407,0,3.5237991787771157
10,19-May-2017,1,23,stim.wav,1,21,7037,3.397207943892326,0,3.5237991787771157
10,19-May-2017,1,23,stim.wav,1,22,7920,0.557021446610749,0,3.5237991787771157
10,19-May-2017,1,23,stim.wav,1,23,8904,2.0902336554060477,0,3.5237991787771157
10,19-May-2017,1,23,stim.wav,1,24,10000,3.3798842024584266,0,3.5237991787771157
10,19-May-2017,1,24,stim.wav,0,0,100,4.068767383169584,0,2.1283128255691666
10,19-May-2017,1,24,stim.wav,0,1,191,-2.7630429742063334,0,2.1283128255691666
10,19-May-2017,1,24,stim.wav,0,2,293,-0.5110859240808243,0,2.1283128255691666
10,19-May-2017,1,24,stim.wav,0,3,406,0.43139167853878235,0,2.1283128255691666
10,19-May-2017,1,24,stim.wav,0,4,533,1.5872954470107892,0,2.1283128255691666
10,19-May-2017,1,24,stim.wav,0,5,673,-7.751251565821994,0,2.1283128255691666
10,19-May-2017,1,24,stim.wav,0,6,830,-1.638722871324256,0,2.1283128255691666
10,19-May-2017,1,24,stim.wav,0,7,1004,2.5071610666399375,0,2.1283128255691666
10,19-May-2017,1,24,stim.wav,0,8,1199,-3.015242971483328,0,2.1283128255691666
10,19-May-2017,1,24,stim.wav,0,9,1416,-7.496500977755667,0,2.1283128255691666
10,19-May-2017,1,24,stim.wav,0,10,1657,-2.7367085082114455,0,2.1283128255691666
10,19-May-2017,1,24,stim.wav,0,11,1926,2.096949949029169,0,2.1283128255691666
10,19-May-2017,1,24,stim.wav,0,12,2226,-2.134706979205701,0,2.1283128255691666
10,19-May-2017,1,24,stim.wav,0,13,2560,-2.96160961854031,0,2.1283128255691666
10,19-May-2017,1,24,stim.wav,0,14,2932,2.0740114810387906,0,2.1283128255691666
10,19-May-2017,1,24,stim.wav,0,15,3346,5.59277463424943,0,2.1283128255691666
10,19-May-2017,1,24,stim.wav,0,16,3808,-7.050954938881642,0,2.1283128255691666
10,19-May-2017,1,24,stim.wav,0,17,4322,5.389611223285039,0,2.1283128255691666
10,19-May-2017,1,24,stim.wav,0,18,4895,0.30652313261569636,0,2.1283128255691666
10,19-May-2017,1,24,stim.wav,0,19,5534,-4.907043249354919,0,2.1283128255691666
10,19-May-2017,1,24,stim.wav,0,20,6245,0.655003494283397,0,2.1283128255691666
10,19-May-2017,1,24,stim.wav,0,21,7037,-8.6585093569855,0,2.1283128255691666
10,19-May-2017,1,24,stim.wav,0,22,7920,3.7912982148509555,0,2.1283128255691666
10,19-May-2017,1,24,stim.wav,0,23,8904,-4.843575171169573,0,2.1283128255691666
10,19-May-2017,1,24,stim.wav,0,24,10000,1.0121816506288361,0,2.1283128255691666
10,19-May-2017,1,24,stim.wav,1,0,100,-10.85666613391038,1,2.1283128255691666
10,19-May-2017,1,24,stim.wav,1,1,191,2.1461538983541306,1,2.1283128255691666
10,19-May-2017,1,24,stim.wav,1,2,293,6.316750148127958,1,2.1283128255691666
10,19-May-2017,1,24,stim.wav,1,3,406,-0.748673532014691,1,2.1283128255691666
10,19-May-2017,1,24,stim.wav,1,4,533,3.920044052113762,1,2.1283128255691666
10,19-May-2017,1,24,stim.wav,1,5,673,1.5918697630414849,1,2.1283128255691666
10,19-May-2017,1,24,stim.wav,1,6,830,0.5934981059514348,1,2.1283128255691666
10,19-May-2017,1,24,stim.wav,1,7,1004,9.94716344259688,1,2.1283128255691666
10,19-May-2017,1,24,stim.wav,1,8,1199,-1.1642225289939647,1,2.1283128255691666
10,19-May-2017,1,24,stim.wav,1,9,1416,2.695934059173113,1,2.1283128255691666
10,19-May-2017,1,24,stim.wav,1,10,1657,2.6417944922688763,1,2.1283128255691666
10,19-May-2017,1,24,stim.wav,1,11,1926,1.7891801730748411,1,2.1283128255691666
10,19-May-2017,1,24,stim.wav,1,12,2226,3.3188474008978925,1,2.1283128255691666
10,19-May-2017,1,24,stim.wav,1,13,2560,-1.187954419180858,1,2.1283128255691666
10,19-May-2017,1,24,stim.wav,1,14,2932,-2.8925730975161086,1,2.1283128255691666
10,19-May-2017,1,24,stim.wav,1,15,3346,3.9914664486458538,1,2.1283128255691666
10,19-May-2017,1,24,stim.wav,1,16,3808,2.7034144516564313,1,2.1283128255691666
10,19-May-2017,1,24,stim.wav,1,17,4322,2.628764179556193,1,2.1283128255691666
10,19-May-2017,1,24,stim.wav,1,18,4895,3.1157819169554,1,2.1283128255691666
10,19-May-2017,1,24,stim.wav,1,19,5534,-6.9203721383565275,1,2.1283128255691666
10,19-May-2017,1,24,stim.wav,1,20,6245,1.5021901164238258,1,2.1283128255691666
10,19-May-2017,1,24,stim.wav,1,21,7037,8.04893040823799,1,2.1283128255691666
10,19-May-2017,1,24,stim.wav,1,22,7920,-1.4790743681781477,1,2.1283128255691666
10,19-May-2017,1,24,stim.wav,1,23,8904,2.7943829157658246,1,2.1283128255691666
10,19-May-2017,1,24,stim.wav,1,24,10000,0.8216988900530704,1,2.1283128255691666
10,19-May-2017,1,25,stim.wav,0,0,100,-0.7573085462884398,1,1.5933420870228037
10,19-May-2017,1,25,stim.wav,0,1,191,-2.273653514146345,1,1.5933420870228037
10,19-May-2017,1,25,stim.wav,0,2,293,-1.3042274510941456,1,1.5933420870228037
10,19-May-2017,1,25,stim.wav,0,3,406,-4.214588983910849,1,1.5933420870228037
10,19-May-2017,1,25,stim.wav,0,4,533,1.9556805919072717,1,1.5933420870228037
10,19-May-2017,1,25,stim.wav,0,5,673,5.361611378597361,1,1.5933420870228037
10,19-May-2017,1,25,stim.wav,0,6,830,3.32796779041006,1,1.5933420870228037
10,19-May-2017,1,25,stim.wav,0,7,1004,-2.6159794210013554,1,1.5933420870228037
10,19-May-2017,1,25,stim.wav,0,8,1199,8.57418007259925,1,1.5933420870228037
10,19-May-2017,1,25,stim.wav,0,9,1416,-4.551405799098366,1,1.5933420870228037
10,19-May-2017,1,25,stim.wav,0,10,1657,-0.5028056161908266,1,1.5933420870228037
10,19-May-2017,1,25,stim.wav,0,11,1926,1.9725522201937065,1,1.5933420870228037
10,19-May-2017,1,25,stim.wav,0,12,2226,-2.804538376403181,1,1.5933420870228037
10,19-May-2017,1,25,stim.wav,0,13,2560,-1.2269026140609027,1,1.5933420870228037
10,19-May-2017,1,25,stim.wav,0,14,2932,-5.938131910943448,1,1.5933420870228037
10,19-May-2017,1,25,stim.wav,0,15,3346,-7.377203303132049,1,1.5933420870228037
10,19-May-2017,1,25,stim.wav,0,16,3808,2.92664309671252,1,1.5933420870228037
10,19-May-2017,1,25,stim.wav,0,17,4322,-8.830647316206527,1,1.5933420870228037
10,19-May-2017,1,25,stim.wav,0,18,4895,1.6173425180552472,1,1.5933420870228037
10,19-May-2017,1,25,stim.wav,0,19,5534,3.8650022742367973,1,1.5933420870228037
10,19-May-2017,1,25,stim.wav,0,20,6245,6.033441760881459,1,1.5933420870228037
10,19-May-2017,1,25,stim.wav,0,21,7037,-3.9145948518399125,1,1.5933420870228037
10,19-May-2017,1,25,stim.wav,0,22,7920,-1.795450284575948,1,1.5933420870228037
10,19-May-2017,1,25,stim.wav,0,23,8904,3.869599991294269,1,1.5933420870228037
10,19-May-2017,1,25,stim.wav,0,24,10000,-1.6954585822845114,1,1.5933420870228037
10,19-May-2017,1,25,stim.wav,1,0,100,-2.4287260353995253,0,1.5933420870228037
10,19-May-2017,1,25,stim.wav,1,1,191,2.0717612978813844,0,1.5933420870228037
10,19-May-2017,1,25,stim.wav,1,2,293,-1.405789850101494,0,1.5933420870228037
10,19-May-2017,1,25,stim.wav,1,3,406,-5.295315394512424,0,1.5933420870228037
10,19-May-2017,1,25,stim.wav,1,4,533,2.6955968215113297,0,1.5933420870228037
10,19-May-2017,1,25,stim.wav,1,5,673,-1.7000933110438312,0,1.5933420870228037
10,19-May-2017,1,25,stim.wav,1,6,830,-6.756176464399989,0,1.5933420870228037
10,19-May-2017,1,25,stim.wav,1,7,1004,0.11613606372574332,0,1.5933420870228037
10,19-May-2017,1,25,stim.wav,1,8,1199,3.160253599981773,0,1.5933420870228037
10,19-May-2017,1,25,stim.wav,1,9,1416,-3.176312379253303,0,1.5933420870228037
10,19-May-2017,1,25,stim.wav,1,10,1657,9.34044041573805,0,1.5933420870228037
10,19-May-2017,1,25,stim.wav,1,11,1926,7.274342936532675,0,1.5933420870228037
10,19-May-2017,1,25,stim.wav,1,12,2226,-4.869680289797691,0,1.5933420870228037
10,19-May-2017,1,25,stim.wav,1,13,2560,-7.752080666382316,0,1.5933420870228037
10,19-May-2017,1,25,stim.wav,1,14,2932,-0.8577606288210636,0,1.5933420870228037
10,19-May-2017,1,25,stim.wav,1,15,3346,-2.584972158951058,0,1.5933420870228037
10,19-May-2017,1,25,stim.wav,1,16,3808,-8.03930916096251,0,1.5933420870228037
10,19-May-2017,1,25,stim.wav,1,17,4322,-3.9783756573595825,0,1.5933420870228037
10,19-May-2017,1,25,stim.wav,1,18,4895,0.6740341179143365,0,1.5933420870228037
10,19-May-2017,1,25,stim.wav,1,19,5534,0.11981915877039997,0,1.5933420870228037
10,19-May-2017,1,25,stim.wav,1,20,6245,-5.064636631986951,0,1.5933420870228037
10,19-May-2017,1,25,stim.wav,1,21,7037,6.011528573762332,0,1.5933420870228037
10,19-May-2017,1,25,stim.wav,1,22,7920,0.9063929261038938,0,1.5933420870228037
10,19-May-2017,1,25,stim.wav,1,23,8904,-1.8269956374313532,0,1.5933420870228037
10,19-May-2017,1,25,stim.wav,1,24,10000,-1.2585153356504655,0,1.5933420870228037
10,19-May-2017,1,26,stim.wav,0,0,100,10.802209321902524,1,3.8498613390955327
10,19-May-2017,1,26,stim.wav,0,1,191,5.369878100173154,1,3.8498613390955327
10,19-May-2017,1,26,stim.wav,0,2,293,2.9811415050323213,1,3.8498613390955327
10,19-May-2017,1,26,stim.wav,0,3,406,8.953416010076719,1,3.8498613390955327
10,19-May-2017,1,26,stim.wav,0,4,533,1.4537209316820099,1,3.8498613390955327
10,19-May-2017,1,26,stim.wav,0,5,673,-7.8241680868299905,1,3.8498613390955327
10,19-May-2017,1,26,stim.wav,0,6,830,0.5185105821563877,1,3.8498613390955327
10,19-May-2017,1,26,stim.wav,0,7,1004,-0.48779673906799303,1,3.8498613390955327
10,19-May-2017,1,26,stim.wav,0,8,1199,3.9016767676986723,1,3.8498613390955327
10,19-May-2017,1,26,stim.wav,0,9,1416,3.583752011625398,1,3.8498613390955327
10,19-May-2017,1,26,stim.wav,0,10,1657,-2.859888540984881,1,3.8498613390955327
10,19-May-2017,1,26,stim.wav,0,11,1926,7.502630743555932,1,3.8498613390955327
10,19-May-2017,1,26,stim.wav,0,12,2226,4.241175512222611,1,3.8498613390955327
10,19-May-2017,1,26,stim.wav,0,13,2560,-3.8112756765734552,1,3.8498613390955327
10,19-May-2017,1,26,stim.wav,0,14,2932,7.935018454376607,1,3.8498613390955327
10,19-May-2017,1,26,stim.wav,0,15,3346,-5.219612334066774,1,3.8498613390955327
10,19-May-2017,1,26,stim.wav,0,16,3808,-0.9375293010741597,1,3.8498613390955327
10,19-May-2017,1,26,stim.wav,0,17,4322,1.0150614729987961,1,3.8498613390955327
10,19-May-2017,1,26,stim.wav,0,18,4895,-6.049677849408263,1,3.8498613390955327
10,19-May-2017,1,26,stim.wav,0,19,5534,-3.71038904895485,1,3.8498613390955327
10,19-May-2017,1,26,stim.wav,0,20,6245,-5.191542339368497,1,3.8498613390955327
10,19-May-2017,1,26,stim.wav,0,21,7037,3.8476020940597233,1,3.8498613390955327
10,19-May-2017,1,26,stim.wav,0,22,7920,-4.212796567169684,1,3.8498613390955327
10,19-May-2017,1,26,stim.wav,0,23,8904,-5.325106759376071,1,3.8498613390955327
10,19-May-2017,1,26,stim.wav,0,24,10000,7.248794477674496,1,3.8498613390955327
10,19-May-2017,1,26,stim.wav,1,0,100,4.435243783856761,0,3.8498613390955327
10,19-May-2017,1,26,stim.wav,1,1,191,-0.4187581635531598,0,3.8498613390955327
10,19-May-2017,1,26,stim.wav,1,2,293,6.42706489793599,0,3.8498613390955327
10,19-May-2017,1,26,stim.wav,1,3,406,-2.2739064936807494,0,3.8498613390955327
10,19-May-2017,1,26,stim.wav,1,4,533,0.17590001990728119,0,3.8498613390955327
10,19-May-2017,1,26,stim.wav,1,5,673,-3.7181173835907004,0,3.8498613390955327
10,19-May-2017,1,26,stim.wav,1,6,830,-1.8696295436154915,0,3.8498613390955327
10,19-May-2017,1,26,stim.wav,1,7,1004,-9.567598583151947,0,3.8498613390955327
10,19-May-2017,1,26,stim.wav,1,8,1199,5.335164605430379,0,3.8498613390955327
10,19-May-2017,1,26,stim.wav,1,9,1416,0.7653187004456902,0,3.8498613390955327
10,19-May-2017,1,26,stim.wav,1,10,1657,-5.4887394319255876,0,3.8498613390955327
10,19-May-2017,1,26,stim.wav,1,11,1926,-4.655661561618096,0,3.8498613390955327
