subj,date,session,trial,stim,stim_order,filter,filter_freq,filter_gain,response,rt
9,19-May-2017,1,1,stim.wav,0,0,100,0.45861832392578344,0,6.67075020996437
9,19-May-2017,1,1,stim.wav,0,1,191,7.287759520241288,0,6.67075020996437
9,19-May-2017,1,1,stim.wav,0,2,293,-1.9913843402706135,0,6.67075020996437
9,19-May-2017,1,1,stim.wav,0,3,406,5.203611052706426,0,6.67075020996437
9,19-May-2017,1,1,stim.wav,0,4,533,1.7998366876867395,0,6.67075020996437
9,19-May-2017,1,1,stim.wav,0,5,673,-11.19735416441386,0,6.67075020996437
9,19-May-2017,1,1,stim.wav,0,6,830,1.1072618182870038,0,6.67075020996437
9,19-May-2017,1,1,stim.wav,0,7,1004,-3.3274446140553877,0,6.67075020996437
9,19-May-2017,1,1,stim.wav,0,8,1199,0.6821876282372229,0,6.67075020996437
9,19-May-2017,1,1,stim.wav,0,9,1416,-0.13001591742871904,0,6.67075020996437
9,19-May-2017,1,1,stim.wav,0,10,1657,6.357767535851205,0,6.67075020996437
9,19-May-2017,1,1,stim.wav,0,11,1926,-9.485527263218597,0,6.67075020996437
9,19-May-2017,1,1,stim.wav,0,12,2226,-4.601641888815447,0,6.67075020996437
9,19-May-2017,1,1,stim.wav,0,13,2560,-3.758968555557308,0,6.67075020996437
9,19-May-2017,1,1,stim.wav,0,14,2932,-2.305794562506388,0,6.67075020996437
9,19-May-2017,1,1,stim.wav,0,15,3346,-5.39875019473943,0,6.67075020996437
9,19-May-2017,1,1,stim.wav,0,16,3808,-1.5702521727177856,0,6.67075020996437
9,19-May-2017,1,1,stim.wav,0,17,4322,5.328228039799142,0,6.67075020996437
9,19-May-2017,1,1,stim.wav,0,18,4895,-6.026411024507845,0,6.67075020996437
9,19-May-2017,1,1,stim.wav,0,19,5534,-3.0216283276385356,0,6.67075020996437
9,19-May-2017,1,1,stim.wav,0,20,6245,5.447074658621185,0,6.67075020996437
9,19-May-2017,1,1,stim.wav,0,21,7037,-2.8684360484428777,0,6.67075020996437
9,19-May-2017,1,1,stim.wav,0,22,7920,-0.08240967622990669,0,6.67075020996437
9,19-May-2017,1,1,stim.wav,0,23,8904,5.53347211638863,0,6.67075020996437
9,19-May-2017,1,1,stim.wav,0,24,10000,2.4739495109782856,0,6.67075020996437
9,19-May-2017,1,1,stim.wav,1,0,100,-3.0439759878393122,1,6.67075020996437
9,19-May-2017,1,1,stim.wav,1,1,191,9.587906243886353,1,6.67075020996437
9,19-May-2017,1,1,stim.wav,1,2,293,1.0094086835991138,1,6.67075020996437
9,19-May-2017,1,1,stim.wav,1,3,406,3.824301030254426,1,6.67075020996437
9,19-May-2017,1,1,stim.wav,1,4,533,-4.043958000646063,1,6.67075020996437
9,19-May-2017,1,1,stim.wav,1,5,673,-3.067240849695984,1,6.67075020996437
9,19-May-2017,1,1,stim.wav,1,6,830,-4.297192596538731,1,6.67075020996437
9,19-May-2017,1,1,stim.wav,1,7,1004,0.9505820036168904,1,6.67075020996437
9,19-May-2017,1,1,stim.wav,1,8,1199,1.0952232192398244,1,6.67075020996437
9,19-May-2017,1,1,stim.wav,1,9,1416,6.50343250328691,1,6.67075020996437
9,19-May-2017,1,1,stim.wav,1,10,1657,-3.000227120047013,1,6.67075020996437
9,19-May-2017,1,1,stim.wav,1,11,1926,11.588031468571888,1,6.67075020996437
9,19-May-2017,1,1,stim.wav,1,12,2226,1.1497196275422434,1,6.67075020996437
9,19-May-2017,1,1,stim.wav,1,13,2560,2.6327404365538305,1,6.67075020996437
9,19-May-2017,1,1,stim.wav,1,14,2932,-3.1803445031524245,1,6.67075020996437
9,19-May-2017,1,1,stim.wav,1,15,3346,1.2492321995485747,1,6.67075020996437
9,19-May-2017,1,1,stim.wav,1,16,3808,-3.4753511954280776,1,6.67075020996437
9,19-May-2017,1,1,stim.wav,1,17,4322,-5.1828139596093346,1,6.67075020996437
9,19-May-2017,1,1,stim.wav,1,18,4895,0.16995318607399154,1,6.67075020996437
9,19-May-2017,1,1,stim.wav,1,19,5534,-6.137712646658096,1,6.67075020996437
9,19-May-2017,1,1,stim.wav,1,20,6245,-1.7389330872036561,1,6.67075020996437
9,19-May-2017,1,1,stim.wav,1,21,7037,-4.872512034202881,1,6.67075020996437
9,19-May-2017,1,1,stim.wav,1,22,7920,-0.9077731428439063,1,6.67075020996437
9,19-May-2017,1,1,stim.wav,1,23,8904,3.3683997080813017,1,6.67075020996437
9,19-May-2017,1,1,stim.wav,1,24,10000,-3.8861505096099074,1,6.67075020996437
9,19-May-2017,1,2,stim.wav,0,0,100,-8.287863941081364,1,5.336636772757829
9,19-May-2017,1,2,stim.wav,0,1,191,1.3276558774876044,1,5.336636772757829
9,19-May-2017,1,2,stim.wav,0,2,293,1.1842776961159338,1,5.336636772757829
9,19-May-2017,1,2,stim.wav,0,3,406,-4.488914430489352,1,5.336636772757829
9,19-May-2017,1,2,stim.wav,0,4,533,8.010196089826147,1,5.336636772757829
9,19-May-2017,1,2,stim.wav,0,5,673,-1.6675433427527577,1,5.336636772757829
9,19-May-2017,1,2,stim.wav,0,6,830,3.1591110204427206,1,5.336636772757829
9,19-May-2017,1,2,stim.wav,0,7,1004,9.104850996947063,1,5.336636772757829
9,19-May-2017,1,2,stim.wav,0,8,1199,-4.89231412278988,1,5.336636772757829
9,19-May-2017,1,2,stim.wav,0,9,1416,2.1164629224452196,1,5.336636772757829
9,19-May-2017,1,2,stim.wav,0,10,1657,0.9216807127779468,1,5.336636772757829
9,19-May-2017,1,2,stim.wav,0,11,1926,4.10873833449871,1,5.336636772757829
9,19-May-2017,1,2,stim.wav,0,12,2226,-0.308850284616103,1,5.336636772757829
9,19-May-2017,1,2,stim.wav,0,13,2560,1.8325949435286049,1,5.336636772757829
9,19-May-2017,1,2,stim.wav,0,14,2932,7.222675880234682,1,5.336636772757829
9,19-May-2017,1,2,stim.wav,0,15,3346,1.349098704713442,1,5.336636772757829
9,19-May-2017,1,2,stim.wav,0,16,3808,-1.3537724726552869,1,5.336636772757829
9,19-May-2017,1,2,stim.wav,0,17,4322,1.0608524748061,1,5.336636772757829
9,19-May-2017,1,2,stim.wav,0,18,4895,0.04192540627124547,1,5.336636772757829
9,19-May-2017,1,2,stim.wav,0,19,5534,-9.892204297511816,1,5.336636772757829
9,19-May-2017,1,2,stim.wav,0,20,6245,-5.468951716724634,1,5.336636772757829
9,19-May-2017,1,2,stim.wav,0,21,7037,-0.3510574746796897,1,5.336636772757829
9,19-May-2017,1,2,stim.wav,0,22,7920,7.505924801069811,1,5.336636772757829
9,19-May-2017,1,2,stim.wav,0,23,8904,-0.6319601422162004,1,5.336636772757829
9,19-May-2017,1,2,stim.wav,0,24,10000,-5.51114059099489,1,5.336636772757829
9,19-May-2017,1,2,stim.wav,1,0,100,-8.962608413099995,0,5.336636772757829
9,19-May-2017,1,2,stim.wav,1,1,191,1.4583296874941793,0,5.336636772757829
9,19-May-2017,1,2,stim.wav,1,2,293,0.42089936899006913,0,5.336636772757829
9,19-May-2017,1,2,stim.wav,1,3,406,6.451146097707926,0,5.336636772757829
9,19-May-2017,1,2,stim.wav,1,4,533,1.5154887364092362,0,5.336636772757829
9,19-May-2017,1,2,stim.wav,1,5,673,-0.7981051472987419,0,5.336636772757829
9,19-May-2017,1,2,stim.wav,1,6,830,1.3262031706514719,0,5.336636772757829
9,19-May-2017,1,2,stim.wav,1,7,1004,6.513900500429183,0,5.336636772757829
9,19-May-2017,1,2,stim.wav,1,8,1199,-0.25248667866538466,0,5.336636772757829
9,19-May-2017,1,2,stim.wav,1,9,1416,-3.8771588697622605,0,5.336636772757829
9,19-May-2017,1,2,stim.wav,1,10,1657,-1.311840840333396,0,5.336636772757829
9,19-May-2017,1,2,stim.wav,1,11,1926,4.397240473466406,0,5.336636772757829
9,19-May-2017,1,2,stim.wav,1,12,2226,5.0220004383058034,0,5.336636772757829
9,19-May-2017,1,2,stim.wav,1,13,2560,-3.2181075733647537,0,5.336636772757829
9,19-May-2017,1,2,stim.wav,1,14,2932,1.1626315568581547,0,5.336636772757829
9,19-May-2017,1,2,stim.wav,1,15,3346,-6.356900612525279,0,5.336636772757829
9,19-May-2017,1,2,stim.wav,1,16,3808,1.5408721316597678,0,5.336636772757829
9,19-May-2017,1,2,stim.wav,1,17,4322,-2.1949268383271727,0,5.336636772757829
9,19-May-2017,1,2,stim.wav,1,18,4895,-1.2815154656696424,0,5.336636772757829
9,19-May-2017,1,2,stim.wav,1,19,5534,4.526327969742744,0,5.336636772757829
9,19-May-2017,1,2,stim.wav,1,20,6245,4.191412807111093,0,5.336636772757829
9,19-May-2017,1,2,stim.wav,1,21,7037,-3.3701178107292673,0,5.336636772757829
9,19-May-2017,1,2,stim.wav,1,22,7920,-5.691495270016832,0,5.336636772757829
9,19-May-2017,1,2,stim.wav,1,23,8904,-6.75546725389,0,5.336636772757829
9,19-May-2017,1,2,stim.wav,1,24,10000,-2.1920900479685534,0,5.336636772757829
9,19-May-2017,1,3,stim.wav,0,0,100,8.037410536356491,1,23.194011525376183
9,19-May-2017,1,3,stim.wav,0,1,191,10.770349865881492,1,23.194011525376183
9,19-May-2017,1,3,stim.wav,0,2,293,-4.326137959255387,1,23.194011525376183
9,19-May-2017,1,3,stim.wav,0,3,406,1.84645030968182,1,23.194011525376183
9,19-May-2017,1,3,stim.wav,0,4,533,-2.7871113128039715,1,23.194011525376183
9,19-May-2017,1,3,stim.wav,0,5,673,0.7636606729206162,1,23.194011525376183
9,19-May-2017,1,3,stim.wav,0,6,830,2.516521112689291,1,23.194011525376183
9,19-May-2017,1,3,stim.wav,0,7,1004,4.178464614433036,1,23.194011525376183
9,19-May-2017,1,3,stim.wav,0,8,1199,-2.1690075330811123,1,23.194011525376183
9,19-May-2017,1,3,stim.wav,0,9,1416,-5.140243262004917,1,23.194011525376183
9,19-May-2017,1,3,stim.wav,0,10,1657,10.27975051949382,1,23.194011525376183
9,19-May-2017,1,3,stim.wav,0,11,1926,2.5255452657722004,1,23.194011525376183
9,19-May-2017,1,3,stim.wav,0,12,2226,5.300518627143597,1,23.194011525376183
9,19-May-2017,1,3,stim.wav,0,13,2560,2.001201548888854,1,23.194011525376183
9,19-May-2017,1,3,stim.wav,0,14,2932,5.963914704329733,1,23.194011525376183
9,19-May-2017,1,3,stim.wav,0,15,3346,-3.0367033847746896,1,23.194011525376183
9,19-May-2017,1,3,stim.wav,0,16,3808,8.25736659784331,1,23.194011525376183
9,19-May-2017,1,3,stim.wav,0,17,4322,6.682477068370384,1,23.194011525376183
9,19-May-2017,1,3,stim.wav,0,18,4895,-1.937659862562192,1,23.194011525376183
9,19-May-2017,1,3,stim.wav,0,19,5534,1.0023887025693035,1,23.194011525376183
9,19-May-2017,1,3,stim.wav,0,20,6245,-1.1900718150294716,1,23.194011525376183
9,19-May-2017,1,3,stim.wav,0,21,7037,-11.528029506595644,1,23.194011525376183
9,19-May-2017,1,3,stim.wav,0,22,7920,-3.7032305596181847,1,23.194011525376183
9,19-May-2017,1,3,stim.wav,0,23,8904,1.070132600217453,1,23.194011525376183
9,19-May-2017,1,3,stim.wav,0,24,10000,0.06356770642543114,1,23.194011525376183
9,19-May-2017,1,3,stim.wav,1,0,100,-0.3129755810918943,0,23.194011525376183
9,19-May-2017,1,3,stim.wav,1,1,191,3.8616070859280827,0,23.194011525376183
9,19-May-2017,1,3,stim.wav,1,2,293,-4.3528888237471755,0,23.194011525376183
9,19-May-2017,1,3,stim.wav,1,3,406,-2.228965835495634,0,23.194011525376183
9,19-May-2017,1,3,stim.wav,1,4,533,2.122622250632502,0,23.194011525376183
9,19-May-2017,1,3,stim.wav,1,5,673,2.891905604919888,0,23.194011525376183
9,19-May-2017,1,3,stim.wav,1,6,830,-8.03331867692064,0,23.194011525376183
9,19-May-2017,1,3,stim.wav,1,7,1004,0.2746952751857936,0,23.194011525376183
9,19-May-2017,1,3,stim.wav,1,8,1199,-12.055209964114205,0,23.194011525376183
9,19-May-2017,1,3,stim.wav,1,9,1416,2.3888009495997338,0,23.194011525376183
9,19-May-2017,1,3,stim.wav,1,10,1657,0.20482499064675516,0,23.194011525376183
9,19-May-2017,1,3,stim.wav,1,11,1926,-7.6212374590802785,0,23.194011525376183
9,19-May-2017,1,3,stim.wav,1,12,2226,0.3763289658053168,0,23.194011525376183
9,19-May-2017,1,3,stim.wav,1,13,2560,1.0076097820361072,0,23.194011525376183
9,19-May-2017,1,3,stim.wav,1,14,2932,2.77357362329895,0,23.194011525376183
9,19-May-2017,1,3,stim.wav,1,15,3346,-7.2847899778576855,0,23.194011525376183
9,19-May-2017,1,3,stim.wav,1,16,3808,-2.9948988631336046,0,23.194011525376183
9,19-May-2017,1,3,stim.wav,1,17,4322,7.527378733524998,0,23.194011525376183
9,19-May-2017,1,3,stim.wav,1,18,4895,-7.499058041192076,0,23.194011525376183
9,19-May-2017,1,3,stim.wav,1,19,5534,2.0613413106177783,0,23.194011525376183
9,19-May-2017,1,3,stim.wav,1,20,6245,-2.4437922769492504,0,23.194011525376183
9,19-May-2017,1,3,stim.wav,1,21,7037,-4.292202992487776,0,23.194011525376183
9,19-May-2017,1,3,stim.wav,1,22,7920,-3.6416682260115065,0,23.194011525376183
9,19-May-2017,1,3,stim.wav,1,23,8904,0.8050513774419801,0,23.194011525376183
9,19-May-2017,1,3,stim.wav,1,24,10000,2.351059187802266,0,23.194011525376183
9,19-May-2017,1,4,stim.wav,0,0,100,-3.6236946497360565,1,4.896946579248507
9,19-May-2017,1,4,stim.wav,0,1,191,-8.396977898843453,1,4.896946579248507
9,19-May-2017,1,4,stim.wav,0,2,293,5.297888580863514,1,4.896946579248507
9,19-May-2017,1,4,stim.wav,0,3,406,-5.882796846352308,1,4.896946579248507
9,19-May-2017,1,4,stim.wav,0,4,533,-0.055499841019474194,1,4.896946579248507
9,19-May-2017,1,4,stim.wav,0,5,673,5.211027985428931,1,4.896946579248507
9,19-May-2017,1,4,stim.wav,0,6,830,-6.925079092338952,1,4.896946579248507
9,19-May-2017,1,4,stim.wav,0,7,1004,-2.358862100623888,1,4.896946579248507
9,19-May-2017,1,4,stim.wav,0,8,1199,6.323893667019238,1,4.896946579248507
9,19-May-2017,1,4,stim.wav,0,9,1416,-2.110402535262656,1,4.896946579248507
9,19-May-2017,1,4,stim.wav,0,10,1657,5.961337174626634,1,4.896946579248507
9,19-May-2017,1,4,stim.wav,0,11,1926,2.1041811582994563,1,4.896946579248507
9,19-May-2017,1,4,stim.wav,0,12,2226,-0.6983561534951567,1,4.896946579248507
9,19-May-2017,1,4,stim.wav,0,13,2560,-1.8428828918330278,1,4.896946579248507
9,19-May-2017,1,4,stim.wav,0,14,2932,-9.600501086646878,1,4.896946579248507
9,19-May-2017,1,4,stim.wav,0,15,3346,0.6623423905384556,1,4.896946579248507
9,19-May-2017,1,4,stim.wav,0,16,3808,-1.2814203241163582,1,4.896946579248507
9,19-May-2017,1,4,stim.wav,0,17,4322,-1.858053003342244,1,4.896946579248507
9,19-May-2017,1,4,stim.wav,0,18,4895,4.43699457658851,1,4.896946579248507
9,19-May-2017,1,4,stim.wav,0,19,5534,-1.8932885505621335,1,4.896946579248507
9,19-May-2017,1,4,stim.wav,0,20,6245,2.0382605483968588,1,4.896946579248507
9,19-May-2017,1,4,stim.wav,0,21,7037,12.218509952591386,1,4.896946579248507
9,19-May-2017,1,4,stim.wav,0,22,7920,2.3715522199673664,1,4.896946579248507
9,19-May-2017,1,4,stim.wav,0,23,8904,-1.9993952489420665,1,4.896946579248507
9,19-May-2017,1,4,stim.wav,0,24,10000,-1.88594280937483,1,4.896946579248507
9,19-May-2017,1,4,stim.wav,1,0,100,0.19535521578978804,0,4.896946579248507
9,19-May-2017,1,4,stim.wav,1,1,191,3.122629245147875,0,4.896946579248507
9,19-May-2017,1,4,stim.wav,1,2,293,-2.9368119514796303,0,4.896946579248507
9,19-May-2017,1,4,stim.wav,1,3,406,0.7668362033173916,0,4.896946579248507
9,19-May-2017,1,4,stim.wav,1,4,533,5.976850956784354,0,4.896946579248507
9,19-May-2017,1,4,stim.wav,1,5,673,-7.7039195782997485,0,4.896946579248507
9,19-May-2017,1,4,stim.wav,1,6,830,2.7949554903710156,0,4.896946579248507
9,19-May-2017,1,4,stim.wav,1,7,1004,0.6660414745468444,0,4.896946579248507
9,19-May-2017,1,4,stim.wav,1,8,1199,-0.8950592112290533,0,4.896946579248507
9,19-May-2017,1,4,stim.wav,1,9,1416,0.5587519101696014,0,4.896946579248507
9,19-May-2017,1,4,stim.wav,1,10,1657,-3.5099315113952922,0,4.896946579248507
9,19-May-2017,1,4,stim.wav,1,11,1926,0.7474598051996799,0,4.896946579248507
9,19-May-2017,1,4,stim.wav,1,12,2226,-7.80415833495062,0,4.896946579248507
9,19-May-2017,1,4,stim.wav,1,13,2560,3.003622189094023,0,4.896946579248507
9,19-May-2017,1,4,stim.wav,1,14,2932,-1.0935952114340708,0,4.896946579248507
9,19-May-2017,1,4,stim.wav,1,15,3346,0.6221726679748436,0,4.896946579248507
9,19-May-2017,1,4,stim.wav,1,16,3808,2.591658320215547,0,4.896946579248507
9,19-May-2017,1,4,stim.wav,1,17,4322,4.424134497164079,0,4.896946579248507
9,19-May-2017,1,4,stim.wav,1,18,4895,-2.2798410114016554,0,4.896946579248507
9,19-May-2017,1,4,stim.wav,1,19,5534,-1.4449204937844207,0,4.896946579248507
9,19-May-2017,1,4,stim.wav,1,20,6245,10.271206815082849,0,4.896946579248507
9,19-May-2017,1,4,stim.wav,1,21,7037,-0.3276129410142903,0,4.896946579248507
9,19-May-2017,1,4,stim.wav,1,22,7920,6.308613483224632,0,4.896946579248507
9,19-May-2017,1,4,stim.wav,1,23,8904,-4.343156645290119,0,4.896946579248507
9,19-May-2017,1,4,stim.wav,1,24,10000,5.180024079400235,0,4.896946579248507
9,19-May-2017,1,5,stim.wav,0,0,100,1.4421643949068255,1,18.504237431643983
9,19-May-2017,1,5,stim.wav,0,1,191,-0.7370980560383921,1,18.504237431643983
9,19-May-2017,1,5,stim.wav,0,2,293,-2.4284100755811178,1,18.504237431643983
9,19-May-2017,1,5,stim.wav,0,3,406,4.576662555589609,1,18.504237431643983
9,19-May-2017,1,5,stim.wav,0,4,533,-0.94619348524986,1,18.504237431643983
9,19-May-2017,1,5,stim.wav,0,5,673,-1.2150477746840633,1,18.504237431643983
9,19-May-2017,1,5,stim.wav,0,6,830,-5.041963172966933,1,18.504237431643983
9,19-May-2017,1,5,stim.wav,0,7,1004,3.202819683042781,1,18.504237431643983
9,19-May-2017,1,5,stim.wav,0,8,1199,0.08404581187822675,1,18.504237431643983
9,19-May-2017,1,5,stim.wav,0,9,1416,4.786070346744305,1,18.504237431643983
9,19-May-2017,1,5,stim.wav,0,10,1657,0.572969840229875,1,18.504237431643983
9,19-May-2017,1,5,stim.wav,0,11,1926,2.1403479554133495,1,18.504237431643983
9,19-May-2017,1,5,stim.wav,0,12,2226,-0.701471401705786,1,18.504237431643983
9,19-May-2017,1,5,stim.wav,0,13,2560,-10.925631070950386,1,18.504237431643983
9,19-May-2017,1,5,stim.wav,0,14,2932,3.798575367427289,1,18.504237431643983
9,19-May-2017,1,5,stim.wav,0,15,3346,-6.479095188101639,1,18.504237431643983
9,19-May-2017,1,5,stim.wav,0,16,3808,-8.20284257907716,1,18.504237431643983
9,19-May-2017,1,5,stim.wav,0,17,4322,-0.12815758326298082,1,18.504237431643983
9,19-May-2017,1,5,stim.wav,0,18,4895,0.8867001078553529,1,18.504237431643983
9,19-May-2017,1,5,stim.wav,0,19,5534,-1.1170561149698879,1,18.504237431643983
9,19-May-2017,1,5,stim.wav,0,20,6245,-1.426401313089178,1,18.504237431643983
9,19-May-2017,1,5,stim.wav,0,21,7037,2.9187678336113403,1,18.504237431643983
9,19-May-2017,1,5,stim.wav,0,22,7920,0.4867778919276282,1,18.504237431643983
9,19-May-2017,1,5,stim.wav,0,23,8904,0.5697338791670141,1,18.504237431643983
9,19-May-2017,1,5,stim.wav,0,24,10000,0.6636593702833973,1,18.504237431643983
9,19-May-2017,1,5,stim.wav,1,0,100,0.7481761265983432,0,18.504237431643983
9,19-May-2017,1,5,stim.wav,1,1,191,7.576844804210941,0,18.504237431643983
9,19-May-2017,1,5,stim.wav,1,2,293,1.9126007586074634,0,18.504237431643983
9,19-May-2017,1,5,stim.wav,1,3,406,-0.6006442043190239,0,18.504237431643983
9,19-May-2017,1,5,stim.wav,1,4,533,-0.49900957209901764,0,18.504237431643983
9,19-May-2017,1,5,stim.wav,1,5,673,2.1112227878130634,0,18.504237431643983
9,19-May-2017,1,5,stim.wav,1,6,830,3.0079982542832955,0,18.504237431643983
9,19-May-2017,1,5,stim.wav,1,7,1004,-1.2782777008587953,0,18.504237431643983
9,19-May-2017,1,5,stim.wav,1,8,1199,-5.433127660665706,0,18.504237431643983
9,19-May-2017,1,5,stim.wav,1,9,1416,-2.785668293134731,0,18.504237431643983
9,19-May-2017,1,5,stim.wav,1,10,1657,-4.0790711653896015,0,18.504237431643983
9,19-May-2017,1,5,stim.wav,1,11,1926,2.952573266542451,0,18.504237431643983
9,19-May-2017,1,5,stim.wav,1,12,2226,-0.04705666072390472,0,18.504237431643983
9,19-May-2017,1,5,stim.wav,1,13,2560,-9.063013709542888,0,18.504237431643983
9,19-May-2017,1,5,stim.wav,1,14,2932,0.2964205444188196,0,18.504237431643983
9,19-May-2017,1,5,stim.wav,1,15,3346,0.48425246749496687,0,18.504237431643983
9,19-May-2017,1,5,stim.wav,1,16,3808,-9.146260575828622,0,18.504237431643983
9,19-May-2017,1,5,stim.wav,1,17,4322,0.3181540946843632,0,18.504237431643983
9,19-May-2017,1,5,stim.wav,1,18,4895,2.723845187716964,0,18.504237431643983
9,19-May-2017,1,5,stim.wav,1,19,5534,-5.573550006349023,0,18.504237431643983
9,19-May-2017,1,5,stim.wav,1,20,6245,8.796464110114908,0,18.504237431643983
9,19-May-2017,1,5,stim.wav,1,21,7037,6.156114104517507,0,18.504237431643983
9,19-May-2017,1,5,stim.wav,1,22,7920,0.21251062109773977,0,18.504237431643983
9,19-May-2017,1,5,stim.wav,1,23,8904,1.9430740940153914,0,18.504237431643983
9,19-May-2017,1,5,stim.wav,1,24,10000,6.139628521398672,0,18.504237431643983
9,19-May-2017,1,6,stim.wav,0,0,100,0.8828043452040293,0,9.372441043202201
9,19-May-2017,1,6,stim.wav,0,1,191,3.601662275030958,0,9.372441043202201
9,19-May-2017,1,6,stim.wav,0,2,293,0.6912600674030038,0,9.372441043202201
9,19-May-2017,1,6,stim.wav,0,3,406,-4.494653894221125,0,9.372441043202201
9,19-May-2017,1,6,stim.wav,0,4,533,3.394374852962327,0,9.372441043202201
9,19-May-2017,1,6,stim.wav,0,5,673,0.9029843000235829,0,9.372441043202201
9,19-May-2017,1,6,stim.wav,0,6,830,1.3235742646276727,0,9.372441043202201
9,19-May-2017,1,6,stim.wav,0,7,1004,-6.70441919035463,0,9.372441043202201
9,19-May-2017,1,6,stim.wav,0,8,1199,0.5633362914909463,0,9.372441043202201
9,19-May-2017,1,6,stim.wav,0,9,1416,5.4124815995526285,0,9.372441043202201
9,19-May-2017,1,6,stim.wav,0,10,1657,3.6385947480966485,0,9.372441043202201
9,19-May-2017,1,6,stim.wav,0,11,1926,3.261620411742973,0,9.372441043202201
9,19-May-2017,1,6,stim.wav,0,12,2226,-0.9011015640633985,0,9.372441043202201
9,19-May-2017,1,6,stim.wav,0,13,2560,1.6977221589938893,0,9.372441043202201
9,19-May-2017,1,6,stim.wav,0,14,2932,-0.33418210682825494,0,9.372441043202201
9,19-May-2017,1,6,stim.wav,0,15,3346,10.259247455270742,0,9.372441043202201
9,19-May-2017,1,6,stim.wav,0,16,3808,-6.1107656647288575,0,9.372441043202201
9,19-May-2017,1,6,stim.wav,0,17,4322,-6.738737233427738,0,9.372441043202201
9,19-May-2017,1,6,stim.wav,0,18,4895,-1.547207873606446,0,9.372441043202201
9,19-May-2017,1,6,stim.wav,0,19,5534,0.07123796061821597,0,9.372441043202201
9,19-May-2017,1,6,stim.wav,0,20,6245,3.0547444213014825,0,9.372441043202201
9,19-May-2017,1,6,stim.wav,0,21,7037,-2.5567793635239164,0,9.372441043202201
9,19-May-2017,1,6,stim.wav,0,22,7920,-7.0464722368861015,0,9.372441043202201
9,19-May-2017,1,6,stim.wav,0,23,8904,3.130802780062097,0,9.372441043202201
9,19-May-2017,1,6,stim.wav,0,24,10000,0.9355148221600977,0,9.372441043202201
9,19-May-2017,1,6,stim.wav,1,0,100,4.363095782353962,1,9.372441043202201
9,19-May-2017,1,6,stim.wav,1,1,191,-3.5390506589864756,1,9.372441043202201
9,19-May-2017,1,6,stim.wav,1,2,293,0.8709787541857533,1,9.372441043202201
9,19-May-2017,1,6,stim.wav,1,3,406,-4.729063746726751,1,9.372441043202201
9,19-May-2017,1,6,stim.wav,1,4,533,-3.6213963775735354,1,9.372441043202201
9,19-May-2017,1,6,stim.wav,1,5,673,-0.3320561834028968,1,9.372441043202201
9,19-May-2017,1,6,stim.wav,1,6,830,-1.7580352807863204,1,9.372441043202201
9,19-May-2017,1,6,stim.wav,1,7,1004,-4.62589300937792,1,9.372441043202201
9,19-May-2017,1,6,stim.wav,1,8,1199,-1.3669393534116954,1,9.372441043202201
9,19-May-2017,1,6,stim.wav,1,9,1416,4.676326363075939,1,9.372441043202201
9,19-May-2017,1,6,stim.wav,1,10,1657,-1.646440349868781,1,9.372441043202201
9,19-May-2017,1,6,stim.wav,1,11,1926,-0.29799843885548427,1,9.372441043202201
9,19-May-2017,1,6,stim.wav,1,12,2226,6.978653222177481,1,9.372441043202201
9,19-May-2017,1,6,stim.wav,1,13,2560,7.74282351528348,1,9.372441043202201
9,19-May-2017,1,6,stim.wav,1,14,2932,2.0730433271707907,1,9.372441043202201
9,19-May-2017,1,6,stim.wav,1,15,3346,6.5441033323171425,1,9.372441043202201
9,19-May-2017,1,6,stim.wav,1,16,3808,6.86859200607133,1,9.372441043202201
9,19-May-2017,1,6,stim.wav,1,17,4322,0.41371051223523386,1,9.372441043202201
9,19-May-2017,1,6,stim.wav,1,18,4895,-8.349636546268265,1,9.372441043202201
9,19-May-2017,1,6,stim.wav,1,19,5534,-5.555813184206173,1,9.372441043202201
9,19-May-2017,1,6,stim.wav,1,20,6245,11.853488875903473,1,9.372441043202201
9,19-May-2017,1,6,stim.wav,1,21,7037,-1.5144544805991422,1,9.372441043202201
9,19-May-2017,1,6,stim.wav,1,22,7920,-3.0785404405249333,1,9.372441043202201
9,19-May-2017,1,6,stim.wav,1,23,8904,3.819462450668174,1,9.372441043202201
9,19-May-2017,1,6,stim.wav,1,24,10000,1.3675575362369117,1,9.372441043202201
9,19-May-2017,1,7,stim.wav,0,0,100,-4.987454010854034,0,18.071475121574075
9,19-May-2017,1,7,stim.wav,0,1,191,-2.0153474865070793,0,18.071475121574075
9,19-May-2017,1,7,stim.wav,0,2,293,6.874483288598614,0,18.071475121574075
9,19-May-2017,1,7,stim.wav,0,3,406,3.2292730121127637,0,18.071475121574075
9,19-May-2017,1,7,stim.wav,0,4,533,-4.612512712309624,0,18.071475121574075
9,19-May-2017,1,7,stim.wav,0,5,673,-2.842311695845851,0,18.071475121574075
9,19-May-2017,1,7,stim.wav,0,6,830,-7.368487564399966,0,18.071475121574075
9,19-May-2017,1,7,stim.wav,0,7,1004,2.8826410794300354,0,18.071475121574075
9,19-May-2017,1,7,stim.wav,0,8,1199,-3.0760666867131246,0,18.071475121574075
9,19-May-2017,1,7,stim.wav,0,9,1416,7.369930995101628,0,18.071475121574075
9,19-May-2017,1,7,stim.wav,0,10,1657,6.7698567095112585,0,18.071475121574075
9,19-May-2017,1,7,stim.wav,0,11,1926,-6.5458003221007335,0,18.071475121574075
9,19-May-2017,1,7,stim.wav,0,12,2226,-7.028643244576353,0,18.071475121574075
9,19-May-2017,1,7,stim.wav,0,13,2560,-11.436247423100907,0,18.071475121574075
9,19-May-2017,1,7,stim.wav,0,14,2932,2.6650091804400873,0,18.071475121574075
9,19-May-2017,1,7,stim.wav,0,15,3346,4.683537280955161,0,18.071475121574075
9,19-May-2017,1,7,stim.wav,0,16,3808,5.0416282865496855,0,18.071475121574075
9,19-May-2017,1,7,stim.wav,0,17,4322,-0.6725560091324979,0,18.071475121574075
9,19-May-2017,1,7,stim.wav,0,18,4895,-2.542608119074648,0,18.071475121574075
9,19-May-2017,1,7,stim.wav,0,19,5534,-11.679391284333725,0,18.071475121574075
9,19-May-2017,1,7,stim.wav,0,20,6245,6.085702082013947,0,18.071475121574075
9,19-May-2017,1,7,stim.wav,0,21,7037,1.0117243334375474,0,18.071475121574075
9,19-May-2017,1,7,stim.wav,0,22,7920,-0.9854151979486024,0,18.071475121574075
9,19-May-2017,1,7,stim.wav,0,23,8904,-2.5777008237225694,0,18.071475121574075
9,19-May-2017,1,7,stim.wav,0,24,10000,-3.978470459615593,0,18.071475121574075
9,19-May-2017,1,7,stim.wav,1,0,100,2.4402212667545338,1,18.071475121574075
9,19-May-2017,1,7,stim.wav,1,1,191,6.3500695250022225,1,18.071475121574075
9,19-May-2017,1,7,stim.wav,1,2,293,-2.1480382678594077,1,18.071475121574075
9,19-May-2017,1,7,stim.wav,1,3,406,0.25766443243404147,1,18.071475121574075
9,19-May-2017,1,7,stim.wav,1,4,533,0.0465240245924678,1,18.071475121574075
9,19-May-2017,1,7,stim.wav,1,5,673,-8.643444384043772,1,18.071475121574075
9,19-May-2017,1,7,stim.wav,1,6,830,6.615196441338008,1,18.071475121574075
9,19-May-2017,1,7,stim.wav,1,7,1004,-6.784316878568769,1,18.071475121574075
9,19-May-2017,1,7,stim.wav,1,8,1199,-9.773751704225354,1,18.071475121574075
9,19-May-2017,1,7,stim.wav,1,9,1416,6.028317756745932,1,18.071475121574075
9,19-May-2017,1,7,stim.wav,1,10,1657,0.6277549461686027,1,18.071475121574075
9,19-May-2017,1,7,stim.wav,1,11,1926,3.924915972396634,1,18.071475121574075
9,19-May-2017,1,7,stim.wav,1,12,2226,-1.3445679928114762,1,18.071475121574075
9,19-May-2017,1,7,stim.wav,1,13,2560,4.0762538914086415,1,18.071475121574075
9,19-May-2017,1,7,stim.wav,1,14,2932,-2.7567951338122674,1,18.071475121574075
9,19-May-2017,1,7,stim.wav,1,15,3346,5.943260185626943,1,18.071475121574075
9,19-May-2017,1,7,stim.wav,1,16,3808,3.1677277406444397,1,18.071475121574075
9,19-May-2017,1,7,stim.wav,1,17,4322,-4.300865279916467,1,18.071475121574075
9,19-May-2017,1,7,stim.wav,1,18,4895,-6.720389805055036,1,18.071475121574075
9,19-May-2017,1,7,stim.wav,1,19,5534,-0.7182696727115305,1,18.071475121574075
9,19-May-2017,1,7,stim.wav,1,20,6245,3.0023702245377355,1,18.071475121574075
9,19-May-2017,1,7,stim.wav,1,21,7037,-3.01803518082556,1,18.071475121574075
9,19-May-2017,1,7,stim.wav,1,22,7920,-4.005280351493486,1,18.071475121574075
9,19-May-2017,1,7,stim.wav,1,23,8904,0.7774205977236963,1,18.071475121574075
9,19-May-2017,1,7,stim.wav,1,24,10000,3.209959147990356,1,18.071475121574075
9,19-May-2017,1,8,stim.wav,0,0,100,3.019392099186637,1,8.230069634619234
9,19-May-2017,1,8,stim.wav,0,1,191,-1.3427647680242702,1,8.230069634619234
9,19-May-2017,1,8,stim.wav,0,2,293,5.451370831631129,1,8.230069634619234
9,19-May-2017,1,8,stim.wav,0,3,406,1.4103196588752982,1,8.230069634619234
9,19-May-2017,1,8,stim.wav,0,4,533,-2.308903512971125,1,8.230069634619234
9,19-May-2017,1,8,stim.wav,0,5,673,2.179017860936525,1,8.230069634619234
9,19-May-2017,1,8,stim.wav,0,6,830,-5.810053749081476,1,8.230069634619234
9,19-May-2017,1,8,stim.wav,0,7,1004,8.662048960700211,1,8.230069634619234
9,19-May-2017,1,8,stim.wav,0,8,1199,-8.599337181322355,1,8.230069634619234
9,19-May-2017,1,8,stim.wav,0,9,1416,-4.727864576275057,1,8.230069634619234
9,19-May-2017,1,8,stim.wav,0,10,1657,-0.36149500078076646,1,8.230069634619234
9,19-May-2017,1,8,stim.wav,0,11,1926,4.952812832665446,1,8.230069634619234
9,19-May-2017,1,8,stim.wav,0,12,2226,-4.6099460099447995,1,8.230069634619234
9,19-May-2017,1,8,stim.wav,0,13,2560,-4.140032332555293,1,8.230069634619234
9,19-May-2017,1,8,stim.wav,0,14,2932,1.1323015127465261,1,8.230069634619234
9,19-May-2017,1,8,stim.wav,0,15,3346,0.3502589056814928,1,8.230069634619234
9,19-May-2017,1,8,stim.wav,0,16,3808,3.1614269526321563,1,8.230069634619234
9,19-May-2017,1,8,stim.wav,0,17,4322,3.7742468931181445,1,8.230069634619234
9,19-May-2017,1,8,stim.wav,0,18,4895,9.90553054188864,1,8.230069634619234
9,19-May-2017,1,8,stim.wav,0,19,5534,5.447678514624821,1,8.230069634619234
9,19-May-2017,1,8,stim.wav,0,20,6245,-3.9837230581733123,1,8.230069634619234
9,19-May-2017,1,8,stim.wav,0,21,7037,0.9563228567695561,1,8.230069634619234
9,19-May-2017,1,8,stim.wav,0,22,7920,5.187227302609331,1,8.230069634619234
9,19-May-2017,1,8,stim.wav,0,23,8904,0.8552266435692619,1,8.230069634619234
9,19-May-2017,1,8,stim.wav,0,24,10000,6.449984124214286,1,8.230069634619234
9,19-May-2017,1,8,stim.wav,1,0,100,-3.9942944445021142,0,8.230069634619234
9,19-May-2017,1,8,stim.wav,1,1,191,9.682209349428515,0,8.230069634619234
9,19-May-2017,1,8,stim.wav,1,2,293,-0.9248474169873828,0,8.230069634619234
9,19-May-2017,1,8,stim.wav,1,3,406,-3.8262469959688428,0,8.230069634619234
9,19-May-2017,1,8,stim.wav,1,4,533,-3.668869247897047,0,8.230069634619234
9,19-May-2017,1,8,stim.wav,1,5,673,-0.062661105950655,0,8.230069634619234
9,19-May-2017,1,8,stim.wav,1,6,830,-1.96609979685443,0,8.230069634619234
9,19-May-2017,1,8,stim.wav,1,7,1004,8.753586985212902,0,8.230069634619234
9,19-May-2017,1,8,stim.wav,1,8,1199,10.072499362928617,0,8.230069634619234
9,19-May-2017,1,8,stim.wav,1,9,1416,-4.394718206509516,0,8.230069634619234
9,19-May-2017,1,8,stim.wav,1,10,1657,-2.187408837591966,0,8.230069634619234
9,19-May-2017,1,8,stim.wav,1,11,1926,7.635449310636515,0,8.230069634619234
9,19-May-2017,1,8,stim.wav,1,12,2226,5.356589560135148,0,8.230069634619234
9,19-May-2017,1,8,stim.wav,1,13,2560,0.24956506130346623,0,8.230069634619234
9,19-May-2017,1,8,stim.wav,1,14,2932,-4.55974397821246,0,8.230069634619234
9,19-May-2017,1,8,stim.wav,1,15,3346,-0.309814651773551,0,8.230069634619234
9,19-May-2017,1,8,stim.wav,1,16,3808,10.577898306507041,0,8.230069634619234
9,19-May-2017,1,8,stim.wav,1,17,4322,-1.0608542129639151,0,8.230069634619234
9,19-May-2017,1,8,stim.wav,1,18,4895,4.213174884219817,0,8.230069634619234
9,19-May-2017,1,8,stim.wav,1,19,5534,-3.1597565972695376,0,8.230069634619234
9,19-May-2017,1,8,stim.wav,1,20,6245,-9.386839239651014,0,8.230069634619234
9,19-May-2017,1,8,stim.wav,1,21,7037,-8.654401422707291,0,8.230069634619234
9,19-May-2017,1,8,stim.wav,1,22,7920,9.28920917442988,0,8.230069634619234
9,19-May-2017,1,8,stim.wav,1,23,8904,-1.4751587362937226,0,8.230069634619234
9,19-May-2017,1,8,stim.wav,1,24,10000,-0.5090686971761798,0,8.230069634619234
9,19-May-2017,1,9,stim.wav,0,0,100,-3.3414548845338214,1,1.1214129447524301
9,19-May-2017,1,9,stim.wav,0,1,191,-2.9338860577337247,1,1.1214129447524301
9,19-May-2017,1,9,stim.wav,0,2,293,7.32263478188429,1,1.1214129447524301
9,19-May-2017,1,9,stim.wav,0,3,406,-4.445155237289312,1,1.1214129447524301
9,19-May-2017,1,9,stim.wav,0,4,533,-2.016037716524375,1,1.1214129447524301
9,19-May-2017,1,9,stim.wav,0,5,673,-8.618414442411002,1,1.1214129447524301
9,19-May-2017,1,9,stim.wav,0,6,830,4.830144959175026,1,1.1214129447524301
9,19-May-2017,1,9,stim.wav,0,7,1004,2.939274513591293,1,1.1214129447524301
9,19-May-2017,1,9,stim.wav,0,8,1199,7.880840396847466,1,1.1214129447524301
9,19-May-2017,1,9,stim.wav,0,9,1416,-5.6969494901747435,1,1.1214129447524301
9,19-May-2017,1,9,stim.wav,0,10,1657,-1.4918837906308786,1,1.1214129447524301
9,19-May-2017,1,9,stim.wav,0,11,1926,0.0715273494581938,1,1.1214129447524301
9,19-May-2017,1,9,stim.wav,0,12,2226,8.980533275335171,1,1.1214129447524301
9,19-May-2017,1,9,stim.wav,0,13,2560,3.6119481778582556,1,1.1214129447524301
9,19-May-2017,1,9,stim.wav,0,14,2932,-12.175105980926972,1,1.1214129447524301
9,19-May-2017,1,9,stim.wav,0,15,3346,0.23547140215144957,1,1.1214129447524301
9,19-May-2017,1,9,stim.wav,0,16,3808,-7.7188123226067065,1,1.1214129447524301
9,19-May-2017,1,9,stim.wav,0,17,4322,4.849151963967104,1,1.1214129447524301
9,19-May-2017,1,9,stim.wav,0,18,4895,1.764705564099489,1,1.1214129447524301
9,19-May-2017,1,9,stim.wav,0,19,5534,6.60184544511015,1,1.1214129447524301
9,19-May-2017,1,9,stim.wav,0,20,6245,0.6294273943053147,1,1.1214129447524301
9,19-May-2017,1,9,stim.wav,0,21,7037,-4.239244491322049,1,1.1214129447524301
9,19-May-2017,1,9,stim.wav,0,22,7920,1.854815863616922,1,1.1214129447524301
9,19-May-2017,1,9,stim.wav,0,23,8904,0.17402829221994767,1,1.1214129447524301
9,19-May-2017,1,9,stim.wav,0,24,10000,4.715352836533357,1,1.1214129447524301
9,19-May-2017,1,9,stim.wav,1,0,100,5.3694788713874075,0,1.1214129447524301
9,19-May-2017,1,9,stim.wav,1,1,191,-2.125233899342634,0,1.1214129447524301
9,19-May-2017,1,9,stim.wav,1,2,293,5.274531857642569,0,1.1214129447524301
9,19-May-2017,1,9,stim.wav,1,3,406,2.85759977402444,0,1.1214129447524301
9,19-May-2017,1,9,stim.wav,1,4,533,-0.1240328745595024,0,1.1214129447524301
9,19-May-2017,1,9,stim.wav,1,5,673,1.8818226825399507,0,1.1214129447524301
9,19-May-2017,1,9,stim.wav,1,6,830,-6.7431467756073,0,1.1214129447524301
9,19-May-2017,1,9,stim.wav,1,7,1004,-6.6813753534668,0,1.1214129447524301
9,19-May-2017,1,9,stim.wav,1,8,1199,-3.174678764831669,0,1.1214129447524301
9,19-May-2017,1,9,stim.wav,1,9,1416,-4.526839384120878,0,1.1214129447524301
9,19-May-2017,1,9,stim.wav,1,10,1657,-2.53771953765832,0,1.1214129447524301
9,19-May-2017,1,9,stim.wav,1,11,1926,1.2299240343114806,0,1.1214129447524301
9,19-May-2017,1,9,stim.wav,1,12,2226,-1.5283071907620642,0,1.1214129447524301
9,19-May-2017,1,9,stim.wav,1,13,2560,3.7253879842784103,0,1.1214129447524301
9,19-May-2017,1,9,stim.wav,1,14,2932,-9.510589682494393,0,1.1214129447524301
9,19-May-2017,1,9,stim.wav,1,15,3346,-0.6849908981109903,0,1.1214129447524301
9,19-May-2017,1,9,stim.wav,1,16,3808,-6.799230692349433,0,1.1214129447524301
9,19-May-2017,1,9,stim.wav,1,17,4322,0.40468428003552465,0,1.1214129447524301
9,19-May-2017,1,9,stim.wav,1,18,4895,-8.476378848692963,0,1.1214129447524301
9,19-May-2017,1,9,stim.wav,1,19,5534,8.446831856306742,0,1.1214129447524301
9,19-May-2017,1,9,stim.wav,1,20,6245,1.2453096206598977,0,1.1214129447524301
9,19-May-2017,1,9,stim.wav,1,21,7037,-2.533447129669173,0,1.1214129447524301
9,19-May-2017,1,9,stim.wav,1,22,7920,0.4340028547232489,0,1.1214129447524301
9,19-May-2017,1,9,stim.wav,1,23,8904,4.376918209313979,0,1.1214129447524301
9,19-May-2017,1,9,stim.wav,1,24,10000,1.2824352228587343,0,1.1214129447524301
9,19-May-2017,1,10,stim.wav,0,0,100,1.3838562888129626,1,3.7952461671880853
9,19-May-2017,1,10,stim.wav,0,1,191,3.2321272924354845,1,3.7952461671880853
9,19-May-2017,1,10,stim.wav,0,2,293,-0.401089842979646,1,3.7952461671880853
9,19-May-2017,1,10,stim.wav,0,3,406,2.0363032403073986,1,3.7952461671880853
9,19-May-2017,1,10,stim.wav,0,4,533,-8.557074172624338,1,3.7952461671880853
9,19-May-2017,1,10,stim.wav,0,5,673,-3.924658599782015,1,3.7952461671880853
9,19-May-2017,1,10,stim.wav,0,6,830,-2.380213389035669,1,3.7952461671880853
9,19-May-2017,1,10,stim.wav,0,7,1004,5.504722386131318,1,3.7952461671880853
9,19-May-2017,1,10,stim.wav,0,8,1199,7.752269530782954,1,3.7952461671880853
9,19-May-2017,1,10,stim.wav,0,9,1416,0.7082263010791091,1,3.7952461671880853
9,19-May-2017,1,10,stim.wav,0,10,1657,0.43920773594559614,1,3.7952461671880853
9,19-May-2017,1,10,stim.wav,0,11,1926,4.296563875449627,1,3.7952461671880853
9,19-May-2017,1,10,stim.wav,0,12,2226,-4.137413988433132,1,3.7952461671880853
9,19-May-2017,1,10,stim.wav,0,13,2560,2.8777008740508014,1,3.7952461671880853
9,19-May-2017,1,10,stim.wav,0,14,2932,-1.0999151851060889,1,3.7952461671880853
9,19-May-2017,1,10,stim.wav,0,15,3346,-1.0598240363659097,1,3.7952461671880853
9,19-May-2017,1,10,stim.wav,0,16,3808,4.1800065312352475,1,3.7952461671880853
9,19-May-2017,1,10,stim.wav,0,17,4322,0.8791596895020313,1,3.7952461671880853
9,19-May-2017,1,10,stim.wav,0,18,4895,6.8480415596748125,1,3.7952461671880853
9,19-May-2017,1,10,stim.wav,0,19,5534,-1.6253164221046947,1,3.7952461671880853
9,19-May-2017,1,10,stim.wav,0,20,6245,-2.045099570840062,1,3.7952461671880853
9,19-May-2017,1,10,stim.wav,0,21,7037,3.1927453152809067,1,3.7952461671880853
9,19-May-2017,1,10,stim.wav,0,22,7920,4.1507677021632965,1,3.7952461671880853
9,19-May-2017,1,10,stim.wav,0,23,8904,0.0069837260801191275,1,3.7952461671880853
9,19-May-2017,1,10,stim.wav,0,24,10000,-1.8095774980332548,1,3.7952461671880853
9,19-May-2017,1,10,stim.wav,1,0,100,-7.8808371348461845,0,3.7952461671880853
9,19-May-2017,1,10,stim.wav,1,1,191,3.8821130307758223,0,3.7952461671880853
9,19-May-2017,1,10,stim.wav,1,2,293,-6.942343829073849,0,3.7952461671880853
9,19-May-2017,1,10,stim.wav,1,3,406,-4.426136516601039,0,3.7952461671880853
9,19-May-2017,1,10,stim.wav,1,4,533,0.7932657344730769,0,3.7952461671880853
9,19-May-2017,1,10,stim.wav,1,5,673,3.414160185303252,0,3.7952461671880853
9,19-May-2017,1,10,stim.wav,1,6,830,-1.6524092158186179,0,3.7952461671880853
9,19-May-2017,1,10,stim.wav,1,7,1004,0.7140393625005382,0,3.7952461671880853
9,19-May-2017,1,10,stim.wav,1,8,1199,-2.3337213692616183,0,3.7952461671880853
9,19-May-2017,1,10,stim.wav,1,9,1416,-3.3650901758104035,0,3.7952461671880853
9,19-May-2017,1,10,stim.wav,1,10,1657,2.7473927247763674,0,3.7952461671880853
9,19-May-2017,1,10,stim.wav,1,11,1926,-8.020516700091147,0,3.7952461671880853
9,19-May-2017,1,10,stim.wav,1,12,2226,-1.5308544715694137,0,3.7952461671880853
9,19-May-2017,1,10,stim.wav,1,13,2560,-3.8624249083194555,0,3.7952461671880853
9,19-May-2017,1,10,stim.wav,1,14,2932,1.4024329084583553,0,3.7952461671880853
9,19-May-2017,1,10,stim.wav,1,15,3346,1.1406540256536224,0,3.7952461671880853
9,19-May-2017,1,10,stim.wav,1,16,3808,-0.7747742978616583,0,3.7952461671880853
9,19-May-2017,1,10,stim.wav,1,17,4322,-3.346671675547727,0,3.7952461671880853
9,19-May-2017,1,10,stim.wav,1,18,4895,-1.6770897562214984,0,3.7952461671880853
9,19-May-2017,1,10,stim.wav,1,19,5534,-0.156099080323667,0,3.7952461671880853
9,19-May-2017,1,10,stim.wav,1,20,6245,3.522153553071533,0,3.7952461671880853
9,19-May-2017,1,10,stim.wav,1,21,7037,2.4153266184852686,0,3.7952461671880853
9,19-May-2017,1,10,stim.wav,1,22,7920,-1.083250213338136,0,3.7952461671880853
9,19-May-2017,1,10,stim.wav,1,23,8904,0.4274204677414429,0,3.7952461671880853
9,19-May-2017,1,10,stim.wav,1,24,10000,-1.7783047805226988,0,3.7952461671880853
9,19-May-2017,1,11,stim.wav,0,0,100,-2.8208062654826342,0,6.36135595075801
9,19-May-2017,1,11,stim.wav,0,1,191,5.221318652977539,0,6.36135595075801
9,19-May-2017,1,11,stim.wav,0,2,293,-0.8644155889643439,0,6.36135595075801
9,19-May-2017,1,11,stim.wav,0,3,406,2.9893193203576556,0,6.36135595075801
9,19-May-2017,1,11,stim.wav,0,4,533,7.048225195463904,0,6.36135595075801
9,19-May-2017,1,11,stim.wav,0,5,673,-1.126903530803439,0,6.36135595075801
9,19-May-2017,1,11,stim.wav,0,6,830,-6.526841618551145,0,6.36135595075801
9,19-May-2017,1,11,stim.wav,0,7,1004,0.8438482768853102,0,6.36135595075801
9,19-May-2017,1,11,stim.wav,0,8,1199,-0.1936724805106223,0,6.36135595075801
9,19-May-2017,1,11,stim.wav,0,9,1416,5.133587297617189,0,6.36135595075801
9,19-May-2017,1,11,stim.wav,0,10,1657,3.0059729031064117,0,6.36135595075801
9,19-May-2017,1,11,stim.wav,0,11,1926,2.6198088428603743,0,6.36135595075801
9,19-May-2017,1,11,stim.wav,0,12,2226,-1.873507177691987,0,6.36135595075801
9,19-May-2017,1,11,stim.wav,0,13,2560,-8.421743623859527,0,6.36135595075801
9,19-May-2017,1,11,stim.wav,0,14,2932,0.22655613903699612,0,6.36135595075801
9,19-May-2017,1,11,stim.wav,0,15,3346,-3.619494474186735,0,6.36135595075801
9,19-May-2017,1,11,stim.wav,0,16,3808,-8.921004890905179,0,6.36135595075801
9,19-May-2017,1,11,stim.wav,0,17,4322,0.1691635684588042,0,6.36135595075801
9,19-May-2017,1,11,stim.wav,0,18,4895,1.241983909896867,0,6.36135595075801
9,19-May-2017,1,11,stim.wav,0,19,5534,-7.2560187835015375,0,6.36135595075801
9,19-May-2017,1,11,stim.wav,0,20,6245,-8.416968392144113,0,6.36135595075801
9,19-May-2017,1,11,stim.wav,0,21,7037,3.520338967570032,0,6.36135595075801
9,19-May-2017,1,11,stim.wav,0,22,7920,9.189852195601349,0,6.36135595075801
9,19-May-2017,1,11,stim.wav,0,23,8904,-6.260227518298379,0,6.36135595075801
9,19-May-2017,1,11,stim.wav,0,24,10000,10.20491975999808,0,6.36135595075801
9,19-May-2017,1,11,stim.wav,1,0,100,-1.3489585603052916,1,6.36135595075801
9,19-May-2017,1,11,stim.wav,1,1,191,1.3082204254183347,1,6.36135595075801
9,19-May-2017,1,11,stim.wav,1,2,293,4.25352773675794,1,6.36135595075801
9,19-May-2017,1,11,stim.wav,1,3,406,3.7940487796726776,1,6.36135595075801
9,19-May-2017,1,11,stim.wav,1,4,533,-3.5159026629172683,1,6.36135595075801
9,19-May-2017,1,11,stim.wav,1,5,673,-9.112570807987957,1,6.36135595075801
9,19-May-2017,1,11,stim.wav,1,6,830,-1.501290593561693,1,6.36135595075801
9,19-May-2017,1,11,stim.wav,1,7,1004,-5.625678895868235,1,6.36135595075801
9,19-May-2017,1,11,stim.wav,1,8,1199,-3.1747803225950544,1,6.36135595075801
9,19-May-2017,1,11,stim.wav,1,9,1416,7.577656855793765,1,6.36135595075801
9,19-May-2017,1,11,stim.wav,1,10,1657,-1.3158867072033107,1,6.36135595075801
9,19-May-2017,1,11,stim.wav,1,11,1926,3.8555324385071224,1,6.36135595075801
9,19-May-2017,1,11,stim.wav,1,12,2226,-2.7749313010173164,1,6.36135595075801
9,19-May-2017,1,11,stim.wav,1,13,2560,-1.5977286303763067,1,6.36135595075801
9,19-May-2017,1,11,stim.wav,1,14,2932,1.1273548015141845,1,6.36135595075801
9,19-May-2017,1,11,stim.wav,1,15,3346,-3.1438613333617837,1,6.36135595075801
9,19-May-2017,1,11,stim.wav,1,16,3808,2.604382797673087,1,6.36135595075801
9,19-May-2017,1,11,stim.wav,1,17,4322,-1.5888560645839889,1,6.36135595075801
9,19-May-2017,1,11,stim.wav,1,18,4895,-0.006556951125228881,1,6.36135595075801
9,19-May-2017,1,11,stim.wav,1,19,5534,2.4391725955745542,1,6.36135595075801
9,19-May-2017,1,11,stim.wav,1,20,6245,1.5776223947313888,1,6.36135595075801
9,19-May-2017,1,11,stim.wav,1,21,7037,2.3735877387587516,1,6.36135595075801
9,19-May-2017,1,11,stim.wav,1,22,7920,0.8131022025980504,1,6.36135595075801
9,19-May-2017,1,11,stim.wav,1,23,8904,4.840112418801062,1,6.36135595075801
9,19-May-2017,1,11,stim.wav,1,24,10000,8.645277513392369,1,6.36135595075801
9,19-May-2017,1,12,stim.wav,0,0,100,-2.905168328645934,0,3.128453721458102
9,19-May-2017,1,12,stim.wav,0,1,191,5.560046005660194,0,3.128453721458102
9,19-May-2017,1,12,stim.wav,0,2,293,1.4665785683929047,0,3.128453721458102
9,19-May-2017,1,12,stim.wav,0,3,406,-0.3025536632343785,0,3.128453721458102
9,19-May-2017,1,12,stim.wav,0,4,533,0.5716464001103795,0,3.128453721458102
9,19-May-2017,1,12,stim.wav,0,5,673,0.9881155443702421,0,3.128453721458102
9,19-May-2017,1,12,stim.wav,0,6,830,2.815402103494587,0,3.128453721458102
9,19-May-2017,1,12,stim.wav,0,7,1004,-0.6146925637194591,0,3.128453721458102
9,19-May-2017,1,12,stim.wav,0,8,1199,6.291285676357119,0,3.128453721458102
9,19-May-2017,1,12,stim.wav,0,9,1416,2.279668034582483,0,3.128453721458102
9,19-May-2017,1,12,stim.wav,0,10,1657,2.754054905508446,0,3.128453721458102
9,19-May-2017,1,12,stim.wav,0,11,1926,7.432010395316318,0,3.128453721458102
9,19-May-2017,1,12,stim.wav,0,12,2226,1.9540513494968537,0,3.128453721458102
9,19-May-2017,1,12,stim.wav,0,13,2560,4.0984165729538375,0,3.128453721458102
9,19-May-2017,1,12,stim.wav,0,14,2932,-7.027093671121253,0,3.128453721458102
9,19-May-2017,1,12,stim.wav,0,15,3346,5.859431460370608,0,3.128453721458102
9,19-May-2017,1,12,stim.wav,0,16,3808,-2.826466578461366,0,3.128453721458102
9,19-May-2017,1,12,stim.wav,0,17,4322,-0.3151950495030116,0,3.128453721458102
9,19-May-2017,1,12,stim.wav,0,18,4895,-0.1249672097944039,0,3.128453721458102
9,19-May-2017,1,12,stim.wav,0,19,5534,1.5740701252314748,0,3.128453721458102
9,19-May-2017,1,12,stim.wav,0,20,6245,5.558727369815112,0,3.128453721458102
9,19-May-2017,1,12,stim.wav,0,21,7037,1.0978966281839877,0,3.128453721458102
9,19-May-2017,1,12,stim.wav,0,22,7920,-0.8313374955784816,0,3.128453721458102
9,19-May-2017,1,12,stim.wav,0,23,8904,-4.424849457944705,0,3.128453721458102
9,19-May-2017,1,12,stim.wav,0,24,10000,8.710710611731129,0,3.128453721458102
9,19-May-2017,1,12,stim.wav,1,0,100,0.39271824226995106,1,3.128453721458102
9,19-May-2017,1,12,stim.wav,1,1,191,-1.0328467420226486,1,3.128453721458102
9,19-May-2017,1,12,stim.wav,1,2,293,-0.9426736007069665,1,3.128453721458102
9,19-May-2017,1,12,stim.wav,1,3,406,-7.270512257539119,1,3.128453721458102
9,19-May-2017,1,12,stim.wav,1,4,533,1.232456636356867,1,3.128453721458102
9,19-May-2017,1,12,stim.wav,1,5,673,-6.781453385211899,1,3.128453721458102
9,19-May-2017,1,12,stim.wav,1,6,830,8.830653172000815,1,3.128453721458102
9,19-May-2017,1,12,stim.wav,1,7,1004,-0.19523850864278142,1,3.128453721458102
9,19-May-2017,1,12,stim.wav,1,8,1199,-2.609960859351465,1,3.128453721458102
9,19-May-2017,1,12,stim.wav,1,9,1416,2.421219823825336,1,3.128453721458102
9,19-May-2017,1,12,stim.wav,1,10,1657,-3.3793268072518234,1,3.128453721458102
9,19-May-2017,1,12,stim.wav,1,11,1926,-5.5521418342526925,1,3.128453721458102
9,19-May-2017,1,12,stim.wav,1,12,2226,5.817735757166438,1,3.128453721458102
9,19-May-2017,1,12,stim.wav,1,13,2560,-2.6384785815538043,1,3.128453721458102
9,19-May-2017,1,12,stim.wav,1,14,2932,-4.605124095253184,1,3.128453721458102
9,19-May-2017,1,12,stim.wav,1,15,3346,0.7367116047848468,1,3.128453721458102
9,19-May-2017,1,12,stim.wav,1,16,3808,0.05675185015921136,1,3.128453721458102
9,19-May-2017,1,12,stim.wav,1,17,4322,6.2523930882953795,1,3.128453721458102
9,19-May-2017,1,12,stim.wav,1,18,4895,-3.925783386641399,1,3.128453721458102
9,19-May-2017,1,12,stim.wav,1,19,5534,3.751774917767004,1,3.128453721458102
9,19-May-2017,1,12,stim.wav,1,20,6245,0.791170222564783,1,3.128453721458102
9,19-May-2017,1,12,stim.wav,1,21,7037,3.512823652870302,1,3.128453721458102
9,19-May-2017,1,12,stim.wav,1,22,7920,0.5254290200699767,1,3.128453721458102
9,19-May-2017,1,12,stim.wav,1,23,8904,0.4460828106886534,1,3.128453721458102
9,19-May-2017,1,12,stim.wav,1,24,10000,0.3373644997829684,1,3.128453721458102
9,19-May-2017,1,13,stim.wav,0,0,100,-2.9122529521464187,1,15.575920208407812
9,19-May-2017,1,13,stim.wav,0,1,191,-1.6649843426443198,1,15.575920208407812
9,19-May-2017,1,13,stim.wav,0,2,293,1.1453663000714256,1,15.575920208407812
9,19-May-2017,1,13,stim.wav,0,3,406,2.8724933979800737,1,15.575920208407812
9,19-May-2017,1,13,stim.wav,0,4,533,7.866955285702728,1,15.575920208407812
9,19-May-2017,1,13,stim.wav,0,5,673,-1.8890589776655884,1,15.575920208407812
9,19-May-2017,1,13,stim.wav,0,6,830,-0.2206496223763328,1,15.575920208407812
9,19-May-2017,1,13,stim.wav,0,7,1004,7.847257727602025,1,15.575920208407812
9,19-May-2017,1,13,stim.wav,0,8,1199,5.6915605884659435,1,15.575920208407812
9,19-May-2017,1,13,stim.wav,0,9,1416,5.18592428526321,1,15.575920208407812
9,19-May-2017,1,13,stim.wav,0,10,1657,-0.27798880301591994,1,15.575920208407812
9,19-May-2017,1,13,stim.wav,0,11,1926,-1.5695887712997738,1,15.575920208407812
9,19-May-2017,1,13,stim.wav,0,12,2226,-8.210388079302028,1,15.575920208407812
9,19-May-2017,1,13,stim.wav,0,13,2560,-2.1161394273844025,1,15.575920208407812
9,19-May-2017,1,13,stim.wav,0,14,2932,-8.302905470678084,1,15.575920208407812
9,19-May-2017,1,13,stim.wav,0,15,3346,-1.001625835754139,1,15.575920208407812
9,19-May-2017,1,13,stim.wav,0,16,3808,-2.2736043628100426,1,15.575920208407812
9,19-May-2017,1,13,stim.wav,0,17,4322,0.7387335505688493,1,15.575920208407812
9,19-May-2017,1,13,stim.wav,0,18,4895,0.9974983746865372,1,15.575920208407812
9,19-May-2017,1,13,stim.wav,0,19,5534,-4.092981897802672,1,15.575920208407812
9,19-May-2017,1,13,stim.wav,0,20,6245,3.823448064413702,1,15.575920208407812
9,19-May-2017,1,13,stim.wav,0,21,7037,-1.5724208073111594,1,15.575920208407812
9,19-May-2017,1,13,stim.wav,0,22,7920,-2.027279815987551,1,15.575920208407812
9,19-May-2017,1,13,stim.wav,0,23,8904,-5.476426299002735,1,15.575920208407812
9,19-May-2017,1,13,stim.wav,0,24,10000,3.0785416614518835,1,15.575920208407812
9,19-May-2017,1,13,stim.wav,1,0,100,8.59069118517271,0,15.575920208407812
9,19-May-2017,1,13,stim.wav,1,1,191,-1.243535254650834,0,15.575920208407812
9,19-May-2017,1,13,stim.wav,1,2,293,-1.5634906983051875,0,15.575920208407812
9,19-May-2017,1,13,stim.wav,1,3,406,-4.289423105961177,0,15.575920208407812
9,19-May-2017,1,13,stim.wav,1,4,533,4.394927047425965,0,15.575920208407812
9,19-May-2017,1,13,stim.wav,1,5,673,1.9308495591362762,0,15.575920208407812
9,19-May-2017,1,13,stim.wav,1,6,830,0.35709226903897806,0,15.575920208407812
9,19-May-2017,1,13,stim.wav,1,7,1004,-8.665892825627557,0,15.575920208407812
9,19-May-2017,1,13,stim.wav,1,8,1199,11.571345666791968,0,15.575920208407812
9,19-May-2017,1,13,stim.wav,1,9,1416,-7.79150562294768,0,15.575920208407812
9,19-May-2017,1,13,stim.wav,1,10,1657,0.6551681369775697,0,15.575920208407812
9,19-May-2017,1,13,stim.wav,1,11,1926,-4.133777712286334,0,15.575920208407812
9,19-May-2017,1,13,stim.wav,1,12,2226,-2.896153232189987,0,15.575920208407812
9,19-May-2017,1,13,stim.wav,1,13,2560,-2.2421521586599975,0,15.575920208407812
9,19-May-2017,1,13,stim.wav,1,14,2932,-7.7708939088104,0,15.575920208407812
9,19-May-2017,1,13,stim.wav,1,15,3346,1.915786217115821,0,15.575920208407812
9,19-May-2017,1,13,stim.wav,1,16,3808,-0.7619208940415318,0,15.575920208407812
9,19-May-2017,1,13,stim.wav,1,17,4322,2.4779466041698517,0,15.575920208407812
9,19-May-2017,1,13,stim.wav,1,18,4895,5.199714193008123,0,15.575920208407812
9,19-May-2017,1,13,stim.wav,1,19,5534,4.464436207491421,0,15.575920208407812
9,19-May-2017,1,13,stim.wav,1,20,6245,-3.5886602247784722,0,15.575920208407812
9,19-May-2017,1,13,stim.wav,1,21,7037,-6.28463668249905,0,15.575920208407812
9,19-May-2017,1,13,stim.wav,1,22,7920,5.351495495827834,0,15.575920208407812
9,19-May-2017,1,13,stim.wav,1,23,8904,-9.7985674279993,0,15.575920208407812
9,19-May-2017,1,13,stim.wav,1,24,10000,1.6734123895347839,0,15.575920208407812
9,19-May-2017,1,14,stim.wav,0,0,100,4.8517166931715385,0,2.3779184192205918
9,19-May-2017,1,14,stim.wav,0,1,191,-2.230161490587085,0,2.3779184192205918
9,19-May-2017,1,14,stim.wav,0,2,293,-0.1780507703751228,0,2.3779184192205918
9,19-May-2017,1,14,stim.wav,0,3,406,0.44400970117955785,0,2.3779184192205918
9,19-May-2017,1,14,stim.wav,0,4,533,4.435979638141468,0,2.3779184192205918
9,19-May-2017,1,14,stim.wav,0,5,673,-2.296789685506097,0,2.3779184192205918
9,19-May-2017,1,14,stim.wav,0,6,830,-5.367428852750068,0,2.3779184192205918
9,19-May-2017,1,14,stim.wav,0,7,1004,-5.838249216313597,0,2.3779184192205918
9,19-May-2017,1,14,stim.wav,0,8,1199,9.865118319414242,0,2.3779184192205918
9,19-May-2017,1,14,stim.wav,0,9,1416,3.9217273144019815,0,2.3779184192205918
9,19-May-2017,1,14,stim.wav,0,10,1657,-5.140981837759205,0,2.3779184192205918
9,19-May-2017,1,14,stim.wav,0,11,1926,-8.77725538453404,0,2.3779184192205918
9,19-May-2017,1,14,stim.wav,0,12,2226,5.2687070648437375,0,2.3779184192205918
9,19-May-2017,1,14,stim.wav,0,13,2560,-5.935833453290313,0,2.3779184192205918
9,19-May-2017,1,14,stim.wav,0,14,2932,-1.6687566753115428,0,2.3779184192205918
9,19-May-2017,1,14,stim.wav,0,15,3346,-4.151186858678645,0,2.3779184192205918
9,19-May-2017,1,14,stim.wav,0,16,3808,-1.218661736220795,0,2.3779184192205918
9,19-May-2017,1,14,stim.wav,0,17,4322,-0.8022998203153007,0,2.3779184192205918
9,19-May-2017,1,14,stim.wav,0,18,4895,-0.5623109472651717,0,2.3779184192205918
9,19-May-2017,1,14,stim.wav,0,19,5534,-1.5991523740044975,0,2.3779184192205918
9,19-May-2017,1,14,stim.wav,0,20,6245,6.457872774033966,0,2.3779184192205918
9,19-May-2017,1,14,stim.wav,0,21,7037,0.027987229364270397,0,2.3779184192205918
9,19-May-2017,1,14,stim.wav,0,22,7920,0.2989399322851614,0,2.3779184192205918
9,19-May-2017,1,14,stim.wav,0,23,8904,7.989918926242337,0,2.3779184192205918
9,19-May-2017,1,14,stim.wav,0,24,10000,2.717827906702474,0,2.3779184192205918
9,19-May-2017,1,14,stim.wav,1,0,100,-6.055010823292635,1,2.3779184192205918
9,19-May-2017,1,14,stim.wav,1,1,191,-0.4657405324578535,1,2.3779184192205918
9,19-May-2017,1,14,stim.wav,1,2,293,-2.319168425301198,1,2.3779184192205918
9,19-May-2017,1,14,stim.wav,1,3,406,-0.1509103957013572,1,2.3779184192205918
9,19-May-2017,1,14,stim.wav,1,4,533,-6.659112915757363,1,2.3779184192205918
9,19-May-2017,1,14,stim.wav,1,5,673,-8.338783667722277,1,2.3779184192205918
9,19-May-2017,1,14,stim.wav,1,6,830,9.978460346202827,1,2.3779184192205918
9,19-May-2017,1,14,stim.wav,1,7,1004,-8.604137524902098,1,2.3779184192205918
9,19-May-2017,1,14,stim.wav,1,8,1199,-5.46151930460007,1,2.3779184192205918
9,19-May-2017,1,14,stim.wav,1,9,1416,3.2867855829843524,1,2.3779184192205918
9,19-May-2017,1,14,stim.wav,1,10,1657,1.6703510424849168,1,2.3779184192205918
9,19-May-2017,1,14,stim.wav,1,11,1926,1.637144514888254,1,2.3779184192205918
9,19-May-2017,1,14,stim.wav,1,12,2226,-4.47728034405177,1,2.3779184192205918
9,19-May-2017,1,14,stim.wav,1,13,2560,-0.1549123914923941,1,2.3779184192205918
9,19-May-2017,1,14,stim.wav,1,14,2932,-1.339969135962539,1,2.3779184192205918
9,19-May-2017,1,14,stim.wav,1,15,3346,4.306200500778665,1,2.3779184192205918
9,19-May-2017,1,14,stim.wav,1,16,3808,4.292149362984372,1,2.3779184192205918
9,19-May-2017,1,14,stim.wav,1,17,4322,-4.236840688980944,1,2.3779184192205918
9,19-May-2017,1,14,stim.wav,1,18,4895,0.5702192427170398,1,2.3779184192205918
9,19-May-2017,1,14,stim.wav,1,19,5534,4.259344960809265,1,2.3779184192205918
9,19-May-2017,1,14,stim.wav,1,20,6245,7.788372996750871,1,2.3779184192205918
9,19-May-2017,1,14,stim.wav,1,21,7037,7.9465467294278795,1,2.3779184192205918
9,19-May-2017,1,14,stim.wav,1,22,7920,3.065919219474766,1,2.3779184192205918
9,19-May-2017,1,14,stim.wav,1,23,8904,3.859682399531696,1,2.3779184192205918
9,19-May-2017,1,14,stim.wav,1,24,10000,7.128626276446809,1,2.3779184192205918
9,19-May-2017,1,15,stim.wav,0,0,100,6.650039824402719,0,2.475380202284207
9,19-May-2017,1,15,stim.wav,0,1,191,2.0711036020658256,0,2.475380202284207
9,19-May-2017,1,15,stim.wav,0,2,293,2.402894463818793,0,2.475380202284207
9,19-May-2017,1,15,stim.wav,0,3,406,-9.15407110728358,0,2.475380202284207
9,19-May-2017,1,15,stim.wav,0,4,533,7.902456236559662,0,2.475380202284207
9,19-May-2017,1,15,stim.wav,0,5,673,-0.8331259485535838,0,2.475380202284207
9,19-May-2017,1,15,stim.wav,0,6,830,3.5666004832640046,0,2.475380202284207
9,19-May-2017,1,15,stim.wav,0,7,1004,4.46444346602796,0,2.475380202284207
9,19-May-2017,1,15,stim.wav,0,8,1199,7.436009823893133,0,2.475380202284207
9,19-May-2017,1,15,stim.wav,0,9,1416,5.96130139078896,0,2.475380202284207
9,19-May-2017,1,15,stim.wav,0,10,1657,1.6927532856287872,0,2.475380202284207
9,19-May-2017,1,15,stim.wav,0,11,1926,-2.3474038649442845,0,2.475380202284207
9,19-May-2017,1,15,stim.wav,0,12,2226,10.853460081526736,0,2.475380202284207
9,19-May-2017,1,15,stim.wav,0,13,2560,5.443941975569619,0,2.475380202284207
9,19-May-2017,1,15,stim.wav,0,14,2932,-0.7210105332860829,0,2.475380202284207
9,19-May-2017,1,15,stim.wav,0,15,3346,6.8640783455624295,0,2.475380202284207
9,19-May-2017,1,15,stim.wav,0,16,3808,3.8029463357199997,0,2.475380202284207
9,19-May-2017,1,15,stim.wav,0,17,4322,-9.995164394151027,0,2.475380202284207
9,19-May-2017,1,15,stim.wav,0,18,4895,-4.688766355409739,0,2.475380202284207
9,19-May-2017,1,15,stim.wav,0,19,5534,1.9914650855209874,0,2.475380202284207
9,19-May-2017,1,15,stim.wav,0,20,6245,-3.7907701906895923,0,2.475380202284207
9,19-May-2017,1,15,stim.wav,0,21,7037,-6.148360689072443,0,2.475380202284207
9,19-May-2017,1,15,stim.wav,0,22,7920,-5.632043249742731,0,2.475380202284207
9,19-May-2017,1,15,stim.wav,0,23,8904,-2.7624438259767152,0,2.475380202284207
9,19-May-2017,1,15,stim.wav,0,24,10000,-4.7190916594038,0,2.475380202284207
9,19-May-2017,1,15,stim.wav,1,0,100,1.1738972043539009,1,2.475380202284207
9,19-May-2017,1,15,stim.wav,1,1,191,-5.889763477947383,1,2.475380202284207
9,19-May-2017,1,15,stim.wav,1,2,293,1.0276113530497035,1,2.475380202284207
9,19-May-2017,1,15,stim.wav,1,3,406,-2.2843080816490877,1,2.475380202284207
9,19-May-2017,1,15,stim.wav,1,4,533,0.5707255995948708,1,2.475380202284207
9,19-May-2017,1,15,stim.wav,1,5,673,-5.226676218835643,1,2.475380202284207
9,19-May-2017,1,15,stim.wav,1,6,830,6.360523848090148,1,2.475380202284207
9,19-May-2017,1,15,stim.wav,1,7,1004,-10.101607725474476,1,2.475380202284207
9,19-May-2017,1,15,stim.wav,1,8,1199,-0.10700589983101512,1,2.475380202284207
9,19-May-2017,1,15,stim.wav,1,9,1416,3.1215669775460047,1,2.475380202284207
9,19-May-2017,1,15,stim.wav,1,10,1657,7.6246673408643275,1,2.475380202284207
9,19-May-2017,1,15,stim.wav,1,11,1926,0.924176832257996,1,2.475380202284207
9,19-May-2017,1,15,stim.wav,1,12,2226,1.020685376373287,1,2.475380202284207
9,19-May-2017,1,15,stim.wav,1,13,2560,4.695053198959093,1,2.475380202284207
9,19-May-2017,1,15,stim.wav,1,14,2932,-3.0962717005810187,1,2.475380202284207
9,19-May-2017,1,15,stim.wav,1,15,3346,6.871542904382169,1,2.475380202284207
9,19-May-2017,1,15,stim.wav,1,16,3808,6.521437854697082,1,2.475380202284207
9,19-May-2017,1,15,stim.wav,1,17,4322,1.0694647117494622,1,2.475380202284207
9,19-May-2017,1,15,stim.wav,1,18,4895,1.3637145629813283,1,2.475380202284207
9,19-May-2017,1,15,stim.wav,1,19,5534,0.45796384783525,1,2.475380202284207
9,19-May-2017,1,15,stim.wav,1,20,6245,3.9771649175366335,1,2.475380202284207
9,19-May-2017,1,15,stim.wav,1,21,7037,-9.182832616442228,1,2.475380202284207
9,19-May-2017,1,15,stim.wav,1,22,7920,3.38037469874189,1,2.475380202284207
9,19-May-2017,1,15,stim.wav,1,23,8904,1.6067399371970303,1,2.475380202284207
9,19-May-2017,1,15,stim.wav,1,24,10000,-8.14942542575442,1,2.475380202284207
9,19-May-2017,1,16,stim.wav,0,0,100,5.443341018430362,0,1.684681923222316
9,19-May-2017,1,16,stim.wav,0,1,191,3.049073022834641,0,1.684681923222316
9,19-May-2017,1,16,stim.wav,0,2,293,-0.4743368791319228,0,1.684681923222316
9,19-May-2017,1,16,stim.wav,0,3,406,-0.023136560425843864,0,1.684681923222316
9,19-May-2017,1,16,stim.wav,0,4,533,3.9845942520600057,0,1.684681923222316
9,19-May-2017,1,16,stim.wav,0,5,673,2.80430198197039,0,1.684681923222316
9,19-May-2017,1,16,stim.wav,0,6,830,-7.604644605685433,0,1.684681923222316
9,19-May-2017,1,16,stim.wav,0,7,1004,-3.9843789772522022,0,1.684681923222316
9,19-May-2017,1,16,stim.wav,0,8,1199,0.33440743252781924,0,1.684681923222316
9,19-May-2017,1,16,stim.wav,0,9,1416,5.586933449434581,0,1.684681923222316
9,19-May-2017,1,16,stim.wav,0,10,1657,-7.190751506862246,0,1.684681923222316
9,19-May-2017,1,16,stim.wav,0,11,1926,-9.527840652088901,0,1.684681923222316
9,19-May-2017,1,16,stim.wav,0,12,2226,-7.453213215872552,0,1.684681923222316
9,19-May-2017,1,16,stim.wav,0,13,2560,2.803833221854666,0,1.684681923222316
9,19-May-2017,1,16,stim.wav,0,14,2932,-2.7161200534014087,0,1.684681923222316
9,19-May-2017,1,16,stim.wav,0,15,3346,-3.0833411562586566,0,1.684681923222316
9,19-May-2017,1,16,stim.wav,0,16,3808,-3.3614199365718407,0,1.684681923222316
9,19-May-2017,1,16,stim.wav,0,17,4322,3.798471043476,0,1.684681923222316
9,19-May-2017,1,16,stim.wav,0,18,4895,3.0106995249509056,0,1.684681923222316
9,19-May-2017,1,16,stim.wav,0,19,5534,-3.3535952846455217,0,1.684681923222316
9,19-May-2017,1,16,stim.wav,0,20,6245,0.734112162041499,0,1.684681923222316
9,19-May-2017,1,16,stim.wav,0,21,7037,-2.612176874261638,0,1.684681923222316
9,19-May-2017,1,16,stim.wav,0,22,7920,-0.8503050609438785,0,1.684681923222316
9,19-May-2017,1,16,stim.wav,0,23,8904,-10.665020325881741,0,1.684681923222316
9,19-May-2017,1,16,stim.wav,0,24,10000,-0.9288834348246415,0,1.684681923222316
9,19-May-2017,1,16,stim.wav,1,0,100,-0.8304401307330951,1,1.684681923222316
9,19-May-2017,1,16,stim.wav,1,1,191,-7.2829766539280225,1,1.684681923222316
9,19-May-2017,1,16,stim.wav,1,2,293,1.8055383131084723,1,1.684681923222316
9,19-May-2017,1,16,stim.wav,1,3,406,0.4927283332654526,1,1.684681923222316
9,19-May-2017,1,16,stim.wav,1,4,533,1.505552382150637,1,1.684681923222316
9,19-May-2017,1,16,stim.wav,1,5,673,-1.2240254869079121,1,1.684681923222316
9,19-May-2017,1,16,stim.wav,1,6,830,-4.426441280385401,1,1.684681923222316
9,19-May-2017,1,16,stim.wav,1,7,1004,-2.753826687544705,1,1.684681923222316
9,19-May-2017,1,16,stim.wav,1,8,1199,-3.77120437302529,1,1.684681923222316
9,19-May-2017,1,16,stim.wav,1,9,1416,-4.174093399134261,1,1.684681923222316
9,19-May-2017,1,16,stim.wav,1,10,1657,-6.668336149825899,1,1.684681923222316
9,19-May-2017,1,16,stim.wav,1,11,1926,2.5676324603095315,1,1.684681923222316
9,19-May-2017,1,16,stim.wav,1,12,2226,-0.11146277075326924,1,1.684681923222316
9,19-May-2017,1,16,stim.wav,1,13,2560,-0.33064500593908647,1,1.684681923222316
9,19-May-2017,1,16,stim.wav,1,14,2932,0.02107203103205036,1,1.684681923222316
9,19-May-2017,1,16,stim.wav,1,15,3346,1.1998669438792287,1,1.684681923222316
9,19-May-2017,1,16,stim.wav,1,16,3808,-1.4760346302320035,1,1.684681923222316
9,19-May-2017,1,16,stim.wav,1,17,4322,-2.9159532619548134,1,1.684681923222316
9,19-May-2017,1,16,stim.wav,1,18,4895,-3.512293598691299,1,1.684681923222316
9,19-May-2017,1,16,stim.wav,1,19,5534,1.1548072659216386,1,1.684681923222316
9,19-May-2017,1,16,stim.wav,1,20,6245,2.5583256092412485,1,1.684681923222316
9,19-May-2017,1,16,stim.wav,1,21,7037,-6.317670068507514,1,1.684681923222316
9,19-May-2017,1,16,stim.wav,1,22,7920,-2.6853796035990705,1,1.684681923222316
9,19-May-2017,1,16,stim.wav,1,23,8904,4.600276807669009,1,1.684681923222316
9,19-May-2017,1,16,stim.wav,1,24,10000,8.83174316046571,1,1.684681923222316
9,19-May-2017,1,17,stim.wav,0,0,100,-3.0547981287305053,0,2.042215923766256
9,19-May-2017,1,17,stim.wav,0,1,191,-1.7198076538391291,0,2.042215923766256
9,19-May-2017,1,17,stim.wav,0,2,293,5.865885433892165,0,2.042215923766256
9,19-May-2017,1,17,stim.wav,0,3,406,4.031816629882764,0,2.042215923766256
9,19-May-2017,1,17,stim.wav,0,4,533,-5.5080320780288865,0,2.042215923766256
9,19-May-2017,1,17,stim.wav,0,5,673,-6.401133185501658,0,2.042215923766256
9,19-May-2017,1,17,stim.wav,0,6,830,-3.61773101464593,0,2.042215923766256
9,19-May-2017,1,17,stim.wav,0,7,1004,-1.2104036050709106,0,2.042215923766256
9,19-May-2017,1,17,stim.wav,0,8,1199,-6.242188877506375,0,2.042215923766256
9,19-May-2017,1,17,stim.wav,0,9,1416,-6.542313395900241,0,2.042215923766256
9,19-May-2017,1,17,stim.wav,0,10,1657,-5.096700903668171,0,2.042215923766256
9,19-May-2017,1,17,stim.wav,0,11,1926,0.9121324696655806,0,2.042215923766256
9,19-May-2017,1,17,stim.wav,0,12,2226,2.3047546325258756,0,2.042215923766256
9,19-May-2017,1,17,stim.wav,0,13,2560,5.258295629206547,0,2.042215923766256
9,19-May-2017,1,17,stim.wav,0,14,2932,0.570308095904744,0,2.042215923766256
9,19-May-2017,1,17,stim.wav,0,15,3346,-3.458252731118935,0,2.042215923766256
9,19-May-2017,1,17,stim.wav,0,16,3808,2.281171884421677,0,2.042215923766256
9,19-May-2017,1,17,stim.wav,0,17,4322,-4.4654900359052245,0,2.042215923766256
9,19-May-2017,1,17,stim.wav,0,18,4895,3.0666755588812293,0,2.042215923766256
9,19-May-2017,1,17,stim.wav,0,19,5534,4.19305607688182,0,2.042215923766256
9,19-May-2017,1,17,stim.wav,0,20,6245,-1.44342324535595,0,2.042215923766256
9,19-May-2017,1,17,stim.wav,0,21,7037,4.2538023643441925,0,2.042215923766256
9,19-May-2017,1,17,stim.wav,0,22,7920,-0.24980946876295934,0,2.042215923766256
9,19-May-2017,1,17,stim.wav,0,23,8904,6.3213227371154925,0,2.042215923766256
9,19-May-2017,1,17,stim.wav,0,24,10000,2.5164222121923503,0,2.042215923766256
9,19-May-2017,1,17,stim.wav,1,0,100,-11.660604683555169,1,2.042215923766256
9,19-May-2017,1,17,stim.wav,1,1,191,-3.9467114564632104,1,2.042215923766256
9,19-May-2017,1,17,stim.wav,1,2,293,-5.650819991459075,1,2.042215923766256
9,19-May-2017,1,17,stim.wav,1,3,406,-3.886246287782869,1,2.042215923766256
9,19-May-2017,1,17,stim.wav,1,4,533,-0.7354535304595646,1,2.042215923766256
9,19-May-2017,1,17,stim.wav,1,5,673,-3.8032540088759053,1,2.042215923766256
9,19-May-2017,1,17,stim.wav,1,6,830,3.2086002436088368,1,2.042215923766256
9,19-May-2017,1,17,stim.wav,1,7,1004,4.6939070567091,1,2.042215923766256
9,19-May-2017,1,17,stim.wav,1,8,1199,6.408128673802277,1,2.042215923766256
9,19-May-2017,1,17,stim.wav,1,9,1416,0.8778899588693446,1,2.042215923766256
9,19-May-2017,1,17,stim.wav,1,10,1657,1.3914862694322507,1,2.042215923766256
9,19-May-2017,1,17,stim.wav,1,11,1926,9.010551632312554,1,2.042215923766256
9,19-May-2017,1,17,stim.wav,1,12,2226,0.5348665432281448,1,2.042215923766256
9,19-May-2017,1,17,stim.wav,1,13,2560,-6.71156674527745,1,2.042215923766256
9,19-May-2017,1,17,stim.wav,1,14,2932,-0.9302548202701993,1,2.042215923766256
9,19-May-2017,1,17,stim.wav,1,15,3346,-6.912849963293154,1,2.042215923766256
9,19-May-2017,1,17,stim.wav,1,16,3808,3.3261420601039573,1,2.042215923766256
9,19-May-2017,1,17,stim.wav,1,17,4322,1.5098077502513831,1,2.042215923766256
9,19-May-2017,1,17,stim.wav,1,18,4895,5.092648426690827,1,2.042215923766256
9,19-May-2017,1,17,stim.wav,1,19,5534,0.2590723895921973,1,2.042215923766256
9,19-May-2017,1,17,stim.wav,1,20,6245,-11.183363293278001,1,2.042215923766256
9,19-May-2017,1,17,stim.wav,1,21,7037,-6.0102347920900225,1,2.042215923766256
9,19-May-2017,1,17,stim.wav,1,22,7920,-0.810662736095331,1,2.042215923766256
9,19-May-2017,1,17,stim.wav,1,23,8904,0.5911468885915735,1,2.042215923766256
9,19-May-2017,1,17,stim.wav,1,24,10000,-1.2314401616880122,1,2.042215923766256
9,19-May-2017,1,18,stim.wav,0,0,100,-3.00647192488284,1,2.480739553524237
9,19-May-2017,1,18,stim.wav,0,1,191,0.3860793232453571,1,2.480739553524237
9,19-May-2017,1,18,stim.wav,0,2,293,-5.185885219130164,1,2.480739553524237
9,19-May-2017,1,18,stim.wav,0,3,406,1.5078862663461439,1,2.480739553524237
9,19-May-2017,1,18,stim.wav,0,4,533,-7.4788941872329655,1,2.480739553524237
9,19-May-2017,1,18,stim.wav,0,5,673,-0.36045640637781934,1,2.480739553524237
9,19-May-2017,1,18,stim.wav,0,6,830,11.621336462901128,1,2.480739553524237
9,19-May-2017,1,18,stim.wav,0,7,1004,1.2586474947654827,1,2.480739553524237
9,19-May-2017,1,18,stim.wav,0,8,1199,6.729922050121665,1,2.480739553524237
9,19-May-2017,1,18,stim.wav,0,9,1416,2.610989683922347,1,2.480739553524237
9,19-May-2017,1,18,stim.wav,0,10,1657,4.126413348612996,1,2.480739553524237
9,19-May-2017,1,18,stim.wav,0,11,1926,3.6599677367948535,1,2.480739553524237
9,19-May-2017,1,18,stim.wav,0,12,2226,7.073689032854808,1,2.480739553524237
9,19-May-2017,1,18,stim.wav,0,13,2560,4.8042056895624325,1,2.480739553524237
9,19-May-2017,1,18,stim.wav,0,14,2932,-4.091904897567181,1,2.480739553524237
9,19-May-2017,1,18,stim.wav,0,15,3346,-0.23719777085946747,1,2.480739553524237
9,19-May-2017,1,18,stim.wav,0,16,3808,-1.166697656958898,1,2.480739553524237
9,19-May-2017,1,18,stim.wav,0,17,4322,1.3217830320495674,1,2.480739553524237
9,19-May-2017,1,18,stim.wav,0,18,4895,1.6538917655946728,1,2.480739553524237
9,19-May-2017,1,18,stim.wav,0,19,5534,5.15084571992515,1,2.480739553524237
9,19-May-2017,1,18,stim.wav,0,20,6245,-2.2903935730154026,1,2.480739553524237
9,19-May-2017,1,18,stim.wav,0,21,7037,-0.3505521646751761,1,2.480739553524237
9,19-May-2017,1,18,stim.wav,0,22,7920,3.4683707324623736,1,2.480739553524237
9,19-May-2017,1,18,stim.wav,0,23,8904,3.4268329294913786,1,2.480739553524237
9,19-May-2017,1,18,stim.wav,0,24,10000,10.709980042936492,1,2.480739553524237
9,19-May-2017,1,18,stim.wav,1,0,100,3.194680857283909,0,2.480739553524237
9,19-May-2017,1,18,stim.wav,1,1,191,6.752196553289139,0,2.480739553524237
9,19-May-2017,1,18,stim.wav,1,2,293,0.4759465704593316,0,2.480739553524237
9,19-May-2017,1,18,stim.wav,1,3,406,1.765958262368991,0,2.480739553524237
9,19-May-2017,1,18,stim.wav,1,4,533,-0.16438946163693213,0,2.480739553524237
9,19-May-2017,1,18,stim.wav,1,5,673,-8.104661904866326,0,2.480739553524237
9,19-May-2017,1,18,stim.wav,1,6,830,0.33753708051763787,0,2.480739553524237
9,19-May-2017,1,18,stim.wav,1,7,1004,-3.471887259131507,0,2.480739553524237
9,19-May-2017,1,18,stim.wav,1,8,1199,4.379242686855369,0,2.480739553524237
9,19-May-2017,1,18,stim.wav,1,9,1416,1.2898125379785608,0,2.480739553524237
9,19-May-2017,1,18,stim.wav,1,10,1657,-2.2778581527337565,0,2.480739553524237
9,19-May-2017,1,18,stim.wav,1,11,1926,-3.609646155931391,0,2.480739553524237
9,19-May-2017,1,18,stim.wav,1,12,2226,0.8843381342436053,0,2.480739553524237
9,19-May-2017,1,18,stim.wav,1,13,2560,-2.49196750318183,0,2.480739553524237
9,19-May-2017,1,18,stim.wav,1,14,2932,-0.9499047636709264,0,2.480739553524237
9,19-May-2017,1,18,stim.wav,1,15,3346,-11.37876368701562,0,2.480739553524237
9,19-May-2017,1,18,stim.wav,1,16,3808,-7.939014842384521,0,2.480739553524237
9,19-May-2017,1,18,stim.wav,1,17,4322,-3.608705521980644,0,2.480739553524237
9,19-May-2017,1,18,stim.wav,1,18,4895,8.857147500378638,0,2.480739553524237
9,19-May-2017,1,18,stim.wav,1,19,5534,-8.197571309563203,0,2.480739553524237
9,19-May-2017,1,18,stim.wav,1,20,6245,-0.05336018952085555,0,2.480739553524237
9,19-May-2017,1,18,stim.wav,1,21,7037,5.9190251986595825,0,2.480739553524237
9,19-May-2017,1,18,stim.wav,1,22,7920,0.8339010307571949,0,2.480739553524237
9,19-May-2017,1,18,stim.wav,1,23,8904,-3.631877580675723,0,2.480739553524237
9,19-May-2017,1,18,stim.wav,1,24,10000,-1.6482927725204564,0,2.480739553524237
9,19-May-2017,1,19,stim.wav,0,0,100,-2.878432348046311,0,2.2131719073659437
9,19-May-2017,1,19,stim.wav,0,1,191,0.06431881148543327,0,2.2131719073659437
9,19-May-2017,1,19,stim.wav,0,2,293,2.2134052734021497,0,2.2131719073659437
9,19-May-2017,1,19,stim.wav,0,3,406,5.412401212070657,0,2.2131719073659437
9,19-May-2017,1,19,stim.wav,0,4,533,8.605397304958359,0,2.2131719073659437
9,19-May-2017,1,19,stim.wav,0,5,673,4.586771075124912,0,2.2131719073659437
9,19-May-2017,1,19,stim.wav,0,6,830,-0.002706169816899603,0,2.2131719073659437
9,19-May-2017,1,19,stim.wav,0,7,1004,-0.4971319825836692,0,2.2131719073659437
9,19-May-2017,1,19,stim.wav,0,8,1199,4.1155141772839015,0,2.2131719073659437
9,19-May-2017,1,19,stim.wav,0,9,1416,-0.8565836391731775,0,2.2131719073659437
9,19-May-2017,1,19,stim.wav,0,10,1657,-3.5476458481531497,0,2.2131719073659437
9,19-May-2017,1,19,stim.wav,0,11,1926,0.19387443967468732,0,2.2131719073659437
9,19-May-2017,1,19,stim.wav,0,12,2226,-4.660470198835259,0,2.2131719073659437
9,19-May-2017,1,19,stim.wav,0,13,2560,6.159563819577852,0,2.2131719073659437
9,19-May-2017,1,19,stim.wav,0,14,2932,-3.178813253467565,0,2.2131719073659437
9,19-May-2017,1,19,stim.wav,0,15,3346,-6.550346339980768,0,2.2131719073659437
9,19-May-2017,1,19,stim.wav,0,16,3808,2.485651013934774,0,2.2131719073659437
9,19-May-2017,1,19,stim.wav,0,17,4322,-0.1346703855122728,0,2.2131719073659437
9,19-May-2017,1,19,stim.wav,0,18,4895,-11.828328176501014,0,2.2131719073659437
9,19-May-2017,1,19,stim.wav,0,19,5534,3.309908872579574,0,2.2131719073659437
9,19-May-2017,1,19,stim.wav,0,20,6245,-7.789949242598536,0,2.2131719073659437
9,19-May-2017,1,19,stim.wav,0,21,7037,2.0083456823482546,0,2.2131719073659437
9,19-May-2017,1,19,stim.wav,0,22,7920,6.136197013561761,0,2.2131719073659437
9,19-May-2017,1,19,stim.wav,0,23,8904,-3.0872110273102455,0,2.2131719073659437
9,19-May-2017,1,19,stim.wav,0,24,10000,-7.804623734989647,0,2.2131719073659437
9,19-May-2017,1,19,stim.wav,1,0,100,-5.148183480304107,1,2.2131719073659437
9,19-May-2017,1,19,stim.wav,1,1,191,0.4926115622679917,1,2.2131719073659437
9,19-May-2017,1,19,stim.wav,1,2,293,3.7006203679538405,1,2.2131719073659437
9,19-May-2017,1,19,stim.wav,1,3,406,1.183535780987508,1,2.2131719073659437
9,19-May-2017,1,19,stim.wav,1,4,533,2.840715283163962,1,2.2131719073659437
9,19-May-2017,1,19,stim.wav,1,5,673,-1.5002529048995243,1,2.2131719073659437
9,19-May-2017,1,19,stim.wav,1,6,830,-4.581322648744711,1,2.2131719073659437
9,19-May-2017,1,19,stim.wav,1,7,1004,-5.568887426153216,1,2.2131719073659437
9,19-May-2017,1,19,stim.wav,1,8,1199,-5.595356776441229,1,2.2131719073659437
9,19-May-2017,1,19,stim.wav,1,9,1416,8.272316016732423,1,2.2131719073659437
9,19-May-2017,1,19,stim.wav,1,10,1657,-6.633108270303438,1,2.2131719073659437
9,19-May-2017,1,19,stim.wav,1,11,1926,-1.0320187195665134,1,2.2131719073659437
9,19-May-2017,1,19,stim.wav,1,12,2226,-0.365793937354281,1,2.2131719073659437
9,19-May-2017,1,19,stim.wav,1,13,2560,9.657951923256423,1,2.2131719073659437
9,19-May-2017,1,19,stim.wav,1,14,2932,2.437309360164384,1,2.2131719073659437
9,19-May-2017,1,19,stim.wav,1,15,3346,3.766705085619224,1,2.2131719073659437
9,19-May-2017,1,19,stim.wav,1,16,3808,-4.772622667122998,1,2.2131719073659437
9,19-May-2017,1,19,stim.wav,1,17,4322,4.651639063030431,1,2.2131719073659437
9,19-May-2017,1,19,stim.wav,1,18,4895,-2.13964184406407,1,2.2131719073659437
9,19-May-2017,1,19,stim.wav,1,19,5534,-8.71591032430611,1,2.2131719073659437
9,19-May-2017,1,19,stim.wav,1,20,6245,5.341451511946637,1,2.2131719073659437
9,19-May-2017,1,19,stim.wav,1,21,7037,-9.439501851958264,1,2.2131719073659437
9,19-May-2017,1,19,stim.wav,1,22,7920,-3.89732461550567,1,2.2131719073659437
9,19-May-2017,1,19,stim.wav,1,23,8904,9.128350157456696,1,2.2131719073659437
9,19-May-2017,1,19,stim.wav,1,24,10000,-0.6549508638398696,1,2.2131719073659437
9,19-May-2017,1,20,stim.wav,0,0,100,-5.496245199931958,1,8.639294382875802
9,19-May-2017,1,20,stim.wav,0,1,191,4.923521150302939,1,8.639294382875802
9,19-May-2017,1,20,stim.wav,0,2,293,-4.030619859252351,1,8.639294382875802
9,19-May-2017,1,20,stim.wav,0,3,406,-5.331830863865119,1,8.639294382875802
9,19-May-2017,1,20,stim.wav,0,4,533,-11.412957246329308,1,8.639294382875802
9,19-May-2017,1,20,stim.wav,0,5,673,5.563875618800943,1,8.639294382875802
9,19-May-2017,1,20,stim.wav,0,6,830,-4.6645977910866705,1,8.639294382875802
9,19-May-2017,1,20,stim.wav,0,7,1004,9.488556857310899,1,8.639294382875802
9,19-May-2017,1,20,stim.wav,0,8,1199,4.748710675833539,1,8.639294382875802
9,19-May-2017,1,20,stim.wav,0,9,1416,-7.583879077159433,1,8.639294382875802
9,19-May-2017,1,20,stim.wav,0,10,1657,-1.1594415336836155,1,8.639294382875802
9,19-May-2017,1,20,stim.wav,0,11,1926,-9.494932732152645,1,8.639294382875802
9,19-May-2017,1,20,stim.wav,0,12,2226,2.0727906119611603,1,8.639294382875802
9,19-May-2017,1,20,stim.wav,0,13,2560,5.3224943234096935,1,8.639294382875802
9,19-May-2017,1,20,stim.wav,0,14,2932,-1.1291713423710716,1,8.639294382875802
9,19-May-2017,1,20,stim.wav,0,15,3346,-6.181842459996947,1,8.639294382875802
9,19-May-2017,1,20,stim.wav,0,16,3808,-0.511919583261356,1,8.639294382875802
9,19-May-2017,1,20,stim.wav,0,17,4322,3.0405965483486836,1,8.639294382875802
9,19-May-2017,1,20,stim.wav,0,18,4895,2.0273679513570135,1,8.639294382875802
9,19-May-2017,1,20,stim.wav,0,19,5534,-2.8720959730503686,1,8.639294382875802
9,19-May-2017,1,20,stim.wav,0,20,6245,-11.019857954853192,1,8.639294382875802
9,19-May-2017,1,20,stim.wav,0,21,7037,-5.967727024762218,1,8.639294382875802
9,19-May-2017,1,20,stim.wav,0,22,7920,-0.4398661769075609,1,8.639294382875802
9,19-May-2017,1,20,stim.wav,0,23,8904,1.4375673201409698,1,8.639294382875802
9,19-May-2017,1,20,stim.wav,0,24,10000,-1.238868849761676,1,8.639294382875802
9,19-May-2017,1,20,stim.wav,1,0,100,10.749366028541147,0,8.639294382875802
9,19-May-2017,1,20,stim.wav,1,1,191,5.026343935095371,0,8.639294382875802
9,19-May-2017,1,20,stim.wav,1,2,293,-1.0551703259959955,0,8.639294382875802
9,19-May-2017,1,20,stim.wav,1,3,406,2.8215389073019495,0,8.639294382875802
9,19-May-2017,1,20,stim.wav,1,4,533,-1.6761211507857852,0,8.639294382875802
9,19-May-2017,1,20,stim.wav,1,5,673,-8.425367203476933,0,8.639294382875802
9,19-May-2017,1,20,stim.wav,1,6,830,-1.8860359418959431,0,8.639294382875802
9,19-May-2017,1,20,stim.wav,1,7,1004,1.3995205152435504,0,8.639294382875802
9,19-May-2017,1,20,stim.wav,1,8,1199,10.482625138204751,0,8.639294382875802
9,19-May-2017,1,20,stim.wav,1,9,1416,4.982813591130844,0,8.639294382875802
9,19-May-2017,1,20,stim.wav,1,10,1657,-2.740605776447744,0,8.639294382875802
9,19-May-2017,1,20,stim.wav,1,11,1926,8.575583609736508,0,8.639294382875802
9,19-May-2017,1,20,stim.wav,1,12,2226,8.155171777627979,0,8.639294382875802
9,19-May-2017,1,20,stim.wav,1,13,2560,5.716383322483985,0,8.639294382875802
9,19-May-2017,1,20,stim.wav,1,14,2932,5.950762155496784,0,8.639294382875802
9,19-May-2017,1,20,stim.wav,1,15,3346,3.72287449008987,0,8.639294382875802
9,19-May-2017,1,20,stim.wav,1,16,3808,2.2695206824166565,0,8.639294382875802
9,19-May-2017,1,20,stim.wav,1,17,4322,2.9512293821635947,0,8.639294382875802
9,19-May-2017,1,20,stim.wav,1,18,4895,-6.562857817340895,0,8.639294382875802
9,19-May-2017,1,20,stim.wav,1,19,5534,-0.38242473140761346,0,8.639294382875802
9,19-May-2017,1,20,stim.wav,1,20,6245,-6.026441028400413,0,8.639294382875802
9,19-May-2017,1,20,stim.wav,1,21,7037,-3.9198825339255254,0,8.639294382875802
9,19-May-2017,1,20,stim.wav,1,22,7920,3.408804957835181,0,8.639294382875802
9,19-May-2017,1,20,stim.wav,1,23,8904,-0.7315622910084442,0,8.639294382875802
9,19-May-2017,1,20,stim.wav,1,24,10000,-3.1467313901013325,0,8.639294382875802
9,19-May-2017,1,21,stim.wav,0,0,100,-3.7140510923475683,0,3.8404804463731326
9,19-May-2017,1,21,stim.wav,0,1,191,-0.5428782189515937,0,3.8404804463731326
9,19-May-2017,1,21,stim.wav,0,2,293,-5.1422275264947075,0,3.8404804463731326
9,19-May-2017,1,21,stim.wav,0,3,406,-7.636570602222235,0,3.8404804463731326
9,19-May-2017,1,21,stim.wav,0,4,533,6.997800579377512,0,3.8404804463731326
9,19-May-2017,1,21,stim.wav,0,5,673,3.794124849106735,0,3.8404804463731326
9,19-May-2017,1,21,stim.wav,0,6,830,-0.09630980524991664,0,3.8404804463731326
9,19-May-2017,1,21,stim.wav,0,7,1004,3.192507145205921,0,3.8404804463731326
9,19-May-2017,1,21,stim.wav,0,8,1199,-10.06772643829719,0,3.8404804463731326
9,19-May-2017,1,21,stim.wav,0,9,1416,-6.043550037081376,0,3.8404804463731326
9,19-May-2017,1,21,stim.wav,0,10,1657,7.0623282542530905,0,3.8404804463731326
9,19-May-2017,1,21,stim.wav,0,11,1926,2.068261860879924,0,3.8404804463731326
9,19-May-2017,1,21,stim.wav,0,12,2226,4.968461006726524,0,3.8404804463731326
9,19-May-2017,1,21,stim.wav,0,13,2560,-4.758225637235338,0,3.8404804463731326
9,19-May-2017,1,21,stim.wav,0,14,2932,-10.58173850638996,0,3.8404804463731326
9,19-May-2017,1,21,stim.wav,0,15,3346,0.5457300501686787,0,3.8404804463731326
9,19-May-2017,1,21,stim.wav,0,16,3808,-4.5539938292727635,0,3.8404804463731326
9,19-May-2017,1,21,stim.wav,0,17,4322,-2.25933926339564,0,3.8404804463731326
9,19-May-2017,1,21,stim.wav,0,18,4895,-0.4863472692496438,0,3.8404804463731326
9,19-May-2017,1,21,stim.wav,0,19,5534,-1.6748717200031251,0,3.8404804463731326
9,19-May-2017,1,21,stim.wav,0,20,6245,5.83053431979501,0,3.8404804463731326
9,19-May-2017,1,21,stim.wav,0,21,7037,5.126833279720506,0,3.8404804463731326
9,19-May-2017,1,21,stim.wav,0,22,7920,-3.0565269353573803,0,3.8404804463731326
9,19-May-2017,1,21,stim.wav,0,23,8904,0.8279675503532433,0,3.8404804463731326
9,19-May-2017,1,21,stim.wav,0,24,10000,-3.9540235077597923,0,3.8404804463731326
9,19-May-2017,1,21,stim.wav,1,0,100,2.632887677639961,1,3.8404804463731326
9,19-May-2017,1,21,stim.wav,1,1,191,-11.473531134619142,1,3.8404804463731326
9,19-May-2017,1,21,stim.wav,1,2,293,2.942852108951623,1,3.8404804463731326
9,19-May-2017,1,21,stim.wav,1,3,406,8.652318531173218,1,3.8404804463731326
9,19-May-2017,1,21,stim.wav,1,4,533,-5.567860354545467,1,3.8404804463731326
9,19-May-2017,1,21,stim.wav,1,5,673,-4.873061734313827,1,3.8404804463731326
9,19-May-2017,1,21,stim.wav,1,6,830,-4.336470705630307,1,3.8404804463731326
9,19-May-2017,1,21,stim.wav,1,7,1004,-1.5267778245143637,1,3.8404804463731326
9,19-May-2017,1,21,stim.wav,1,8,1199,6.1325179614391425,1,3.8404804463731326
9,19-May-2017,1,21,stim.wav,1,9,1416,5.010706475118104,1,3.8404804463731326
9,19-May-2017,1,21,stim.wav,1,10,1657,3.514488397240683,1,3.8404804463731326
9,19-May-2017,1,21,stim.wav,1,11,1926,-11.20254058147789,1,3.8404804463731326
9,19-May-2017,1,21,stim.wav,1,12,2226,5.497533851114049,1,3.8404804463731326
9,19-May-2017,1,21,stim.wav,1,13,2560,-3.461354767879734,1,3.8404804463731326
9,19-May-2017,1,21,stim.wav,1,14,2932,0.08894875988047307,1,3.8404804463731326
9,19-May-2017,1,21,stim.wav,1,15,3346,4.218573143892444,1,3.8404804463731326
9,19-May-2017,1,21,stim.wav,1,16,3808,-5.962844077117172,1,3.8404804463731326
9,19-May-2017,1,21,stim.wav,1,17,4322,1.8600148571579638,1,3.8404804463731326
9,19-May-2017,1,21,stim.wav,1,18,4895,2.745026193980406,1,3.8404804463731326
9,19-May-2017,1,21,stim.wav,1,19,5534,-2.8365730276993824,1,3.8404804463731326
9,19-May-2017,1,21,stim.wav,1,20,6245,6.769456744036124,1,3.8404804463731326
9,19-May-2017,1,21,stim.wav,1,21,7037,0.027754185586302355,1,3.8404804463731326
9,19-May-2017,1,21,stim.wav,1,22,7920,-2.7996984125663205,1,3.8404804463731326
9,19-May-2017,1,21,stim.wav,1,23,8904,2.0230242336298363,1,3.8404804463731326
9,19-May-2017,1,21,stim.wav,1,24,10000,0.8371356833612984,1,3.8404804463731326
9,19-May-2017,1,22,stim.wav,0,0,100,-9.246882394115733,0,0.7799946290173325
9,19-May-2017,1,22,stim.wav,0,1,191,0.873126796791277,0,0.7799946290173325
9,19-May-2017,1,22,stim.wav,0,2,293,-1.1671106536714504,0,0.7799946290173325
9,19-May-2017,1,22,stim.wav,0,3,406,6.981609884422656,0,0.7799946290173325
9,19-May-2017,1,22,stim.wav,0,4,533,7.9211944228096645,0,0.7799946290173325
9,19-May-2017,1,22,stim.wav,0,5,673,4.108547884571632,0,0.7799946290173325
9,19-May-2017,1,22,stim.wav,0,6,830,5.514700237127021,0,0.7799946290173325
9,19-May-2017,1,22,stim.wav,0,7,1004,-0.7125916528811138,0,0.7799946290173325
9,19-May-2017,1,22,stim.wav,0,8,1199,-8.014277746361714,0,0.7799946290173325
9,19-May-2017,1,22,stim.wav,0,9,1416,1.9544426581160947,0,0.7799946290173325
9,19-May-2017,1,22,stim.wav,0,10,1657,10.098961385097333,0,0.7799946290173325
9,19-May-2017,1,22,stim.wav,0,11,1926,2.085353710999504,0,0.7799946290173325
9,19-May-2017,1,22,stim.wav,0,12,2226,-0.6180007597295503,0,0.7799946290173325
9,19-May-2017,1,22,stim.wav,0,13,2560,-3.1736672713135157,0,0.7799946290173325
9,19-May-2017,1,22,stim.wav,0,14,2932,1.768777997410401,0,0.7799946290173325
9,19-May-2017,1,22,stim.wav,0,15,3346,2.2903428760452873,0,0.7799946290173325
9,19-May-2017,1,22,stim.wav,0,16,3808,-9.072546218095704,0,0.7799946290173325
9,19-May-2017,1,22,stim.wav,0,17,4322,-5.4232565578686875,0,0.7799946290173325
9,19-May-2017,1,22,stim.wav,0,18,4895,4.074321010452325,0,0.7799946290173325
9,19-May-2017,1,22,stim.wav,0,19,5534,-4.043918285550696,0,0.7799946290173325
9,19-May-2017,1,22,stim.wav,0,20,6245,7.072909287454987,0,0.7799946290173325
9,19-May-2017,1,22,stim.wav,0,21,7037,1.1536011267477444,0,0.7799946290173325
9,19-May-2017,1,22,stim.wav,0,22,7920,4.422472563451756,0,0.7799946290173325
9,19-May-2017,1,22,stim.wav,0,23,8904,-6.561262128058953,0,0.7799946290173325
9,19-May-2017,1,22,stim.wav,0,24,10000,8.86269164654135,0,0.7799946290173325
9,19-May-2017,1,22,stim.wav,1,0,100,-2.0130102965367076,1,0.7799946290173325
9,19-May-2017,1,22,stim.wav,1,1,191,2.5728684293818254,1,0.7799946290173325
9,19-May-2017,1,22,stim.wav,1,2,293,5.893897080346094,1,0.7799946290173325
9,19-May-2017,1,22,stim.wav,1,3,406,4.428160273292189,1,0.7799946290173325
9,19-May-2017,1,22,stim.wav,1,4,533,3.6712445067218935,1,0.7799946290173325
9,19-May-2017,1,22,stim.wav,1,5,673,3.0724221041267867,1,0.7799946290173325
9,19-May-2017,1,22,stim.wav,1,6,830,-0.23141919078688397,1,0.7799946290173325
9,19-May-2017,1,22,stim.wav,1,7,1004,3.936532368144638,1,0.7799946290173325
9,19-May-2017,1,22,stim.wav,1,8,1199,3.9706146208707493,1,0.7799946290173325
9,19-May-2017,1,22,stim.wav,1,9,1416,2.5340430597769714,1,0.7799946290173325
9,19-May-2017,1,22,stim.wav,1,10,1657,-2.26949743202252,1,0.7799946290173325
9,19-May-2017,1,22,stim.wav,1,11,1926,-3.1679339673374427,1,0.7799946290173325
9,19-May-2017,1,22,stim.wav,1,12,2226,-2.5265368264863137,1,0.7799946290173325
9,19-May-2017,1,22,stim.wav,1,13,2560,-3.4521965547888422,1,0.7799946290173325
9,19-May-2017,1,22,stim.wav,1,14,2932,-2.881718798412629,1,0.7799946290173325
9,19-May-2017,1,22,stim.wav,1,15,3346,1.539911371367725,1,0.7799946290173325
9,19-May-2017,1,22,stim.wav,1,16,3808,-5.087506877874657,1,0.7799946290173325
9,19-May-2017,1,22,stim.wav,1,17,4322,1.2273975809429913,1,0.7799946290173325
9,19-May-2017,1,22,stim.wav,1,18,4895,1.312780854661434,1,0.7799946290173325
9,19-May-2017,1,22,stim.wav,1,19,5534,-11.740053638997075,1,0.7799946290173325
9,19-May-2017,1,22,stim.wav,1,20,6245,-3.9176941015261257,1,0.7799946290173325
9,19-May-2017,1,22,stim.wav,1,21,7037,-2.482407125896349,1,0.7799946290173325
9,19-May-2017,1,22,stim.wav,1,22,7920,8.936914649214636,1,0.7799946290173325
9,19-May-2017,1,22,stim.wav,1,23,8904,5.630349019290577,1,0.7799946290173325
9,19-May-2017,1,22,stim.wav,1,24,10000,0.5321459212122157,1,0.7799946290173325
9,19-May-2017,1,23,stim.wav,0,0,100,-4.764185756728889,0,0.9216996252285661
9,19-May-2017,1,23,stim.wav,0,1,191,-0.04157855146286567,0,0.9216996252285661
9,19-May-2017,1,23,stim.wav,0,2,293,-2.694098263119527,0,0.9216996252285661
9,19-May-2017,1,23,stim.wav,0,3,406,-2.4504034436937254,0,0.9216996252285661
9,19-May-2017,1,23,stim.wav,0,4,533,4.282068570288002,0,0.9216996252285661
9,19-May-2017,1,23,stim.wav,0,5,673,4.588216482111352,0,0.9216996252285661
9,19-May-2017,1,23,stim.wav,0,6,830,-7.16482196730817,0,0.9216996252285661
9,19-May-2017,1,23,stim.wav,0,7,1004,-2.305420977309164,0,0.9216996252285661
9,19-May-2017,1,23,stim.wav,0,8,1199,-3.330384628812026,0,0.9216996252285661
9,19-May-2017,1,23,stim.wav,0,9,1416,-5.854366128590769,0,0.9216996252285661
9,19-May-2017,1,23,stim.wav,0,10,1657,7.7811616568385364,0,0.9216996252285661
9,19-May-2017,1,23,stim.wav,0,11,1926,-5.069321369996302,0,0.9216996252285661
9,19-May-2017,1,23,stim.wav,0,12,2226,8.947336051611966,0,0.9216996252285661
9,19-May-2017,1,23,stim.wav,0,13,2560,2.3971111902223745,0,0.9216996252285661
9,19-May-2017,1,23,stim.wav,0,14,2932,4.443995911467059,0,0.9216996252285661
9,19-May-2017,1,23,stim.wav,0,15,3346,-3.8267013959643235,0,0.9216996252285661
9,19-May-2017,1,23,stim.wav,0,16,3808,3.041771996844687,0,0.9216996252285661
9,19-May-2017,1,23,stim.wav,0,17,4322,-7.091759040596832,0,0.9216996252285661
9,19-May-2017,1,23,stim.wav,0,18,4895,-2.9595988103807365,0,0.9216996252285661
9,19-May-2017,1,23,stim.wav,0,19,5534,0.4494907608502366,0,0.9216996252285661
9,19-May-2017,1,23,stim.wav,0,20,6245,6.486719296044959,0,0.9216996252285661
9,19-May-2017,1,23,stim.wav,0,21,7037,3.276707109604561,0,0.9216996252285661
9,19-May-2017,1,23,stim.wav,0,22,7920,-1.7397057378956182,0,0.9216996252285661
9,19-May-2017,1,23,stim.wav,0,23,8904,7.6628372547806665,0,0.9216996252285661
9,19-May-2017,1,23,stim.wav,0,24,10000,-0.9504679281423698,0,0.9216996252285661
9,19-May-2017,1,23,stim.wav,1,0,100,-3.896443521888477,1,0.9216996252285661
9,19-May-2017,1,23,stim.wav,1,1,191,-2.1125470101419412,1,0.9216996252285661
9,19-May-2017,1,23,stim.wav,1,2,293,-2.3194619311883087,1,0.9216996252285661
9,19-May-2017,1,23,stim.wav,1,3,406,-2.148568377890294,1,0.9216996252285661
9,19-May-2017,1,23,stim.wav,1,4,533,-1.1927522524846594,1,0.9216996252285661
9,19-May-2017,1,23,stim.wav,1,5,673,-5.176635872197969,1,0.9216996252285661
9,19-May-2017,1,23,stim.wav,1,6,830,-3.954102822277263,1,0.9216996252285661
9,19-May-2017,1,23,stim.wav,1,7,1004,6.839366661042511,1,0.9216996252285661
9,19-May-2017,1,23,stim.wav,1,8,1199,-0.5861103517149555,1,0.9216996252285661
9,19-May-2017,1,23,stim.wav,1,9,1416,-6.333220242645023,1,0.9216996252285661
9,19-May-2017,1,23,stim.wav,1,10,1657,1.076328865762616,1,0.9216996252285661
9,19-May-2017,1,23,stim.wav,1,11,1926,5.88880513023549,1,0.9216996252285661
9,19-May-2017,1,23,stim.wav,1,12,2226,-5.797923656562788,1,0.9216996252285661
9,19-May-2017,1,23,stim.wav,1,13,2560,5.301488880040801,1,0.9216996252285661
9,19-May-2017,1,23,stim.wav,1,14,2932,-3.7035563569955428,1,0.9216996252285661
9,19-May-2017,1,23,stim.wav,1,15,3346,-3.625366873465066,1,0.9216996252285661
9,19-May-2017,1,23,stim.wav,1,16,3808,2.723126904822517,1,0.9216996252285661
9,19-May-2017,1,23,stim.wav,1,17,4322,-4.410092955264322,1,0.9216996252285661
9,19-May-2017,1,23,stim.wav,1,18,4895,-0.5032641576500939,1,0.9216996252285661
9,19-May-2017,1,23,stim.wav,1,19,5534,7.401494640373522,1,0.9216996252285661
9,19-May-2017,1,23,stim.wav,1,20,6245,-8.566344919011616,1,0.9216996252285661
9,19-May-2017,1,23,stim.wav,1,21,7037,2.247809332463969,1,0.9216996252285661
9,19-May-2017,1,23,stim.wav,1,22,7920,0.6744072112687265,1,0.9216996252285661
9,19-May-2017,1,23,stim.wav,1,23,8904,1.2756021224216987,1,0.9216996252285661
9,19-May-2017,1,23,stim.wav,1,24,10000,-3.993657778290997,1,0.9216996252285661
9,19-May-2017,1,24,stim.wav,0,0,100,-0.27152255676419645,0,8.597231036069399
9,19-May-2017,1,24,stim.wav,0,1,191,0.4103022644065981,0,8.597231036069399
9,19-May-2017,1,24,stim.wav,0,2,293,-4.419476535938185,0,8.597231036069399
9,19-May-2017,1,24,stim.wav,0,3,406,0.7593068935018208,0,8.597231036069399
9,19-May-2017,1,24,stim.wav,0,4,533,1.6233170801457473,0,8.597231036069399
9,19-May-2017,1,24,stim.wav,0,5,673,-4.8829904453952055,0,8.597231036069399
9,19-May-2017,1,24,stim.wav,0,6,830,2.700800639340908,0,8.597231036069399
9,19-May-2017,1,24,stim.wav,0,7,1004,-3.0426858678753046,0,8.597231036069399
9,19-May-2017,1,24,stim.wav,0,8,1199,1.8691480503623432,0,8.597231036069399
9,19-May-2017,1,24,stim.wav,0,9,1416,-0.8737089306079137,0,8.597231036069399
9,19-May-2017,1,24,stim.wav,0,10,1657,10.700195624938015,0,8.597231036069399
9,19-May-2017,1,24,stim.wav,0,11,1926,0.13150439686304988,0,8.597231036069399
9,19-May-2017,1,24,stim.wav,0,12,2226,-2.5998076245520583,0,8.597231036069399
9,19-May-2017,1,24,stim.wav,0,13,2560,1.3009879241040287,0,8.597231036069399
9,19-May-2017,1,24,stim.wav,0,14,2932,-1.316507230048691,0,8.597231036069399
9,19-May-2017,1,24,stim.wav,0,15,3346,6.173465883479202,0,8.597231036069399
9,19-May-2017,1,24,stim.wav,0,16,3808,-2.4303630626425687,0,8.597231036069399
9,19-May-2017,1,24,stim.wav,0,17,4322,0.19541016241197184,0,8.597231036069399
9,19-May-2017,1,24,stim.wav,0,18,4895,-2.57202905895013,0,8.597231036069399
9,19-May-2017,1,24,stim.wav,0,19,5534,3.4447804698253046,0,8.597231036069399
9,19-May-2017,1,24,stim.wav,0,20,6245,-4.012737903773828,0,8.597231036069399
9,19-May-2017,1,24,stim.wav,0,21,7037,-7.840572561652886,0,8.597231036069399
9,19-May-2017,1,24,stim.wav,0,22,7920,-3.5428599518670274,0,8.597231036069399
9,19-May-2017,1,24,stim.wav,0,23,8904,3.429715057047779,0,8.597231036069399
9,19-May-2017,1,24,stim.wav,0,24,10000,1.2119041152690295,0,8.597231036069399
9,19-May-2017,1,24,stim.wav,1,0,100,3.6679592823291873,1,8.597231036069399
9,19-May-2017,1,24,stim.wav,1,1,191,-0.45960819403277536,1,8.597231036069399
9,19-May-2017,1,24,stim.wav,1,2,293,12.039152963075407,1,8.597231036069399
9,19-May-2017,1,24,stim.wav,1,3,406,6.028698614955056,1,8.597231036069399
9,19-May-2017,1,24,stim.wav,1,4,533,-4.316180243074194,1,8.597231036069399
9,19-May-2017,1,24,stim.wav,1,5,673,6.179691083200955,1,8.597231036069399
9,19-May-2017,1,24,stim.wav,1,6,830,-6.174365983920795,1,8.597231036069399
9,19-May-2017,1,24,stim.wav,1,7,1004,-1.464070094035811,1,8.597231036069399
9,19-May-2017,1,24,stim.wav,1,8,1199,3.16464155510005,1,8.597231036069399
9,19-May-2017,1,24,stim.wav,1,9,1416,2.1317980166269077,1,8.597231036069399
9,19-May-2017,1,24,stim.wav,1,10,1657,10.782794068059454,1,8.597231036069399
9,19-May-2017,1,24,stim.wav,1,11,1926,2.584321866779918,1,8.597231036069399
9,19-May-2017,1,24,stim.wav,1,12,2226,5.227652351807455,1,8.597231036069399
9,19-May-2017,1,24,stim.wav,1,13,2560,0.45065624379087,1,8.597231036069399
9,19-May-2017,1,24,stim.wav,1,14,2932,4.802949310072205,1,8.597231036069399
9,19-May-2017,1,24,stim.wav,1,15,3346,-0.0058864683312846505,1,8.597231036069399
9,19-May-2017,1,24,stim.wav,1,16,3808,-5.588323143473307,1,8.597231036069399
9,19-May-2017,1,24,stim.wav,1,17,4322,-0.37135529879311613,1,8.597231036069399
9,19-May-2017,1,24,stim.wav,1,18,4895,1.7945200811486883,1,8.597231036069399
9,19-May-2017,1,24,stim.wav,1,19,5534,-1.7852366617064352,1,8.597231036069399
9,19-May-2017,1,24,stim.wav,1,20,6245,2.9108998945451026,1,8.597231036069399
9,19-May-2017,1,24,stim.wav,1,21,7037,-0.2745578618674118,1,8.597231036069399
9,19-May-2017,1,24,stim.wav,1,22,7920,3.691620666252004,1,8.597231036069399
9,19-May-2017,1,24,stim.wav,1,23,8904,0.6829058399591048,1,8.597231036069399
9,19-May-2017,1,24,stim.wav,1,24,10000,-3.3588815979781153,1,8.597231036069399
9,19-May-2017,1,25,stim.wav,0,0,100,2.5351838367577035,0,4.222367234953124
9,19-May-2017,1,25,stim.wav,0,1,191,5.0446863775867135,0,4.222367234953124
9,19-May-2017,1,25,stim.wav,0,2,293,2.5331199320858975,0,4.222367234953124
9,19-May-2017,1,25,stim.wav,0,3,406,-7.313307319569189,0,4.222367234953124
9,19-May-2017,1,25,stim.wav,0,4,533,-8.715399715214563,0,4.222367234953124
9,19-May-2017,1,25,stim.wav,0,5,673,0.7995398392685825,0,4.222367234953124
9,19-May-2017,1,25,stim.wav,0,6,830,3.5201801422488597,0,4.222367234953124
9,19-May-2017,1,25,stim.wav,0,7,1004,-0.48901144097442917,0,4.222367234953124
9,19-May-2017,1,25,stim.wav,0,8,1199,4.213211929588937,0,4.222367234953124
9,19-May-2017,1,25,stim.wav,0,9,1416,1.3358313600088887,0,4.222367234953124
9,19-May-2017,1,25,stim.wav,0,10,1657,-7.890793342868063,0,4.222367234953124
9,19-May-2017,1,25,stim.wav,0,11,1926,4.025617748980671,0,4.222367234953124
9,19-May-2017,1,25,stim.wav,0,12,2226,3.511388288736739,0,4.222367234953124
9,19-May-2017,1,25,stim.wav,0,13,2560,-10.617202599902523,0,4.222367234953124
9,19-May-2017,1,25,stim.wav,0,14,2932,8.703030826687092,0,4.222367234953124
9,19-May-2017,1,25,stim.wav,0,15,3346,-9.25616229861945,0,4.222367234953124
9,19-May-2017,1,25,stim.wav,0,16,3808,3.413901514114317,0,4.222367234953124
9,19-May-2017,1,25,stim.wav,0,17,4322,-4.033042818071673,0,4.222367234953124
9,19-May-2017,1,25,stim.wav,0,18,4895,-7.4183535567811845,0,4.222367234953124
9,19-May-2017,1,25,stim.wav,0,19,5534,1.6932204596866243,0,4.222367234953124
9,19-May-2017,1,25,stim.wav,0,20,6245,-0.33933686026856913,0,4.222367234953124
9,19-May-2017,1,25,stim.wav,0,21,7037,-7.634981640662623,0,4.222367234953124
9,19-May-2017,1,25,stim.wav,0,22,7920,3.4605557600669803,0,4.222367234953124
9,19-May-2017,1,25,stim.wav,0,23,8904,-7.156509585747907,0,4.222367234953124
9,19-May-2017,1,25,stim.wav,0,24,10000,0.9284014145808008,0,4.222367234953124
9,19-May-2017,1,25,stim.wav,1,0,100,2.6162477897687526,1,4.222367234953124
9,19-May-2017,1,25,stim.wav,1,1,191,3.608921268221044,1,4.222367234953124
9,19-May-2017,1,25,stim.wav,1,2,293,-5.39044364509738,1,4.222367234953124
9,19-May-2017,1,25,stim.wav,1,3,406,-2.541178436848294,1,4.222367234953124
9,19-May-2017,1,25,stim.wav,1,4,533,3.565208549431454,1,4.222367234953124
9,19-May-2017,1,25,stim.wav,1,5,673,-4.623475043505248,1,4.222367234953124
9,19-May-2017,1,25,stim.wav,1,6,830,-1.677175630865875,1,4.222367234953124
9,19-May-2017,1,25,stim.wav,1,7,1004,-4.679274396643,1,4.222367234953124
9,19-May-2017,1,25,stim.wav,1,8,1199,3.8764700838776416,1,4.222367234953124
9,19-May-2017,1,25,stim.wav,1,9,1416,-4.636434886969419,1,4.222367234953124
9,19-May-2017,1,25,stim.wav,1,10,1657,6.952451370688049,1,4.222367234953124
9,19-May-2017,1,25,stim.wav,1,11,1926,8.075345742264691,1,4.222367234953124
9,19-May-2017,1,25,stim.wav,1,12,2226,3.2646623756866626,1,4.222367234953124
9,19-May-2017,1,25,stim.wav,1,13,2560,-3.9517829886789113,1,4.222367234953124
9,19-May-2017,1,25,stim.wav,1,14,2932,5.340446696994071,1,4.222367234953124
9,19-May-2017,1,25,stim.wav,1,15,3346,3.6559732386226274,1,4.222367234953124
9,19-May-2017,1,25,stim.wav,1,16,3808,-3.2113755723832615,1,4.222367234953124
9,19-May-2017,1,25,stim.wav,1,17,4322,-0.18196265665915592,1,4.222367234953124
9,19-May-2017,1,25,stim.wav,1,18,4895,6.135844214695471,1,4.222367234953124
9,19-May-2017,1,25,stim.wav,1,19,5534,-2.400741512724094,1,4.222367234953124
9,19-May-2017,1,25,stim.wav,1,20,6245,-0.1388328018834792,1,4.222367234953124
9,19-May-2017,1,25,stim.wav,1,21,7037,-10.30719527590993,1,4.222367234953124
9,19-May-2017,1,25,stim.wav,1,22,7920,2.2947819028286216,1,4.222367234953124
9,19-May-2017,1,25,stim.wav,1,23,8904,-5.6694838667819125,1,4.222367234953124
9,19-May-2017,1,25,stim.wav,1,24,10000,-1.7984339519012216,1,4.222367234953124
9,19-May-2017,1,26,stim.wav,0,0,100,7.033464357587481,0,10.838849309726097
9,19-May-2017,1,26,stim.wav,0,1,191,2.060519016788992,0,10.838849309726097
9,19-May-2017,1,26,stim.wav,0,2,293,5.647550551822681,0,10.838849309726097
9,19-May-2017,1,26,stim.wav,0,3,406,-4.558282946972753,0,10.838849309726097
9,19-May-2017,1,26,stim.wav,0,4,533,-10.888043581572603,0,10.838849309726097
9,19-May-2017,1,26,stim.wav,0,5,673,0.9834222564296584,0,10.838849309726097
9,19-May-2017,1,26,stim.wav,0,6,830,9.205724568457393,0,10.838849309726097
9,19-May-2017,1,26,stim.wav,0,7,1004,6.263388121211477,0,10.838849309726097
9,19-May-2017,1,26,stim.wav,0,8,1199,-5.9345956381984735,0,10.838849309726097
9,19-May-2017,1,26,stim.wav,0,9,1416,6.764022126406553,0,10.838849309726097
9,19-May-2017,1,26,stim.wav,0,10,1657,1.4810098211377798,0,10.838849309726097
9,19-May-2017,1,26,stim.wav,0,11,1926,-1.1662156897089961,0,10.838849309726097
9,19-May-2017,1,26,stim.wav,0,12,2226,0.27121806460812065,0,10.838849309726097
9,19-May-2017,1,26,stim.wav,0,13,2560,1.6686529604681677,0,10.838849309726097
9,19-May-2017,1,26,stim.wav,0,14,2932,-3.323357170325263,0,10.838849309726097
9,19-May-2017,1,26,stim.wav,0,15,3346,1.125382424629797,0,10.838849309726097
9,19-May-2017,1,26,stim.wav,0,16,3808,-0.7596298145373226,0,10.838849309726097
9,19-May-2017,1,26,stim.wav,0,17,4322,10.371524262679886,0,10.838849309726097
9,19-May-2017,1,26,stim.wav,0,18,4895,9.007546146667396,0,10.838849309726097
9,19-May-2017,1,26,stim.wav,0,19,5534,0.9408891135294245,0,10.838849309726097
9,19-May-2017,1,26,stim.wav,0,20,6245,4.593925772689762,0,10.838849309726097
9,19-May-2017,1,26,stim.wav,0,21,7037,-1.217593624072608,0,10.838849309726097
9,19-May-2017,1,26,stim.wav,0,22,7920,-1.5701490052621423,0,10.838849309726097
9,19-May-2017,1,26,stim.wav,0,23,8904,2.920996949464017,0,10.838849309726097
9,19-May-2017,1,26,stim.wav,0,24,10000,0.30294804657400676,0,10.838849309726097
9,19-May-2017,1,26,stim.wav,1,0,100,0.4064715076623444,1,10.838849309726097
9,19-May-2017,1,26,stim.wav,1,1,191,-8.774924653321037,1,10.838849309726097
9,19-May-2017,1,26,stim.wav,1,2,293,0.2965252167167246,1,10.838849309726097
9,19-May-2017,1,26,stim.wav,1,3,406,-2.2008717135832407,1,10.838849309726097
9,19-May-2017,1,26,stim.wav,1,4,533,2.475175321177476,1,10.838849309726097
9,19-May-2017,1,26,stim.wav,1,5,673,-0.07339962274322534,1,10.838849309726097
9,19-May-2017,1,26,stim.wav,1,6,830,5.097330280350149,1,10.838849309726097
9,19-May-2017,1,26,stim.wav,1,7,1004,-0.3047644415538664,1,10.838849309726097
9,19-May-2017,1,26,stim.wav,1,8,1199,-5.12163082562163,1,10.838849309726097
9,19-May-2017,1,26,stim.wav,1,9,1416,-3.6360499582481753,1,10.838849309726097
9,19-May-2017,1,26,stim.wav,1,10,1657,-0.34380174062925606,1,10.838849309726097
9,19-May-2017,1,26,stim.wav,1,11,1926,-5.9214430348583855,1,10.838849309726097
9,19-May-2017,1,26,stim.wav,1,12,2226,0.9036898337615269,1,10.838849309726097
9,19-May-2017,1,26,stim.wav,1,13,2560,3.6630973576594434,1,10.838849309726097
9,19-May-2017,1,26,stim.wav,1,14,2932,-3.7828509070920315,1,10.838849309726097
9,19-May-2017,1,26,stim.wav,1,15,3346,3.8451340139018426,1,10.838849309726097
9,19-May-2017,1,26,stim.wav,1,16,3808,-3.6695380953260033,1,10.838849309726097
9,19-May-2017,1,26,stim.wav,1,17,4322,-0.5879373066251082,1,10.838849309726097
9,19-May-2017,1,26,stim.wav,1,18,4895,-8.849969641895672,1,10.838849309726097
9,19-May-2017,1,26,stim.wav,1,19,5534,5.216418746651309,1,10.838849309726097
9,19-May-2017,1,26,stim.wav,1,20,6245,0.6006400627142475,1,10.838849309726097
9,19-May-2017,1,26,stim.wav,1,21,7037,7.10521939127576,1,10.838849309726097
9,19-May-2017,1,26,stim.wav,1,22,7920,-1.803581908474995,1,10.838849309726097
9,19-May-2017,1,26,stim.wav,1,23,8904,2.649267119475847,1,10.838849309726097
9,19-May-2017,1,26,stim.wav,1,24,10000,3.879940161016063,1,10.838849309726097
9,19-May-2017,1,27,stim.wav,0,0,100,2.594837992215356,1,3.618955463606461
9,19-May-2017,1,27,stim.wav,0,1,191,3.825527523582201,1,3.618955463606461
9,19-May-2017,1,27,stim.wav,0,2,293,-5.610902539919383,1,3.618955463606461
9,19-May-2017,1,27,stim.wav,0,3,406,-2.249680549689117,1,3.618955463606461
9,19-May-2017,1,27,stim.wav,0,4,533,-1.2666424811774553,1,3.618955463606461
9,19-May-2017,1,27,stim.wav,0,5,673,-0.07682473419181586,1,3.618955463606461
9,19-May-2017,1,27,stim.wav,0,6,830,-1.0037095479220624,1,3.618955463606461
9,19-May-2017,1,27,stim.wav,0,7,1004,3.964462681286443,1,3.618955463606461
