subj,date,session,trial,stim,stim_order,filter,filter_freq,filter_gain,response,rt
7,19-May-2017,1,1,stim.wav,0,0,100,-0.4122083175980311,1,4.270902929942407
7,19-May-2017,1,1,stim.wav,0,1,191,7.017271707963834,1,4.270902929942407
7,19-May-2017,1,1,stim.wav,0,2,293,-2.1604667766693892,1,4.270902929942407
7,19-May-2017,1,1,stim.wav,0,3,406,-3.454072523341098,1,4.270902929942407
7,19-May-2017,1,1,stim.wav,0,4,533,6.965599634830272,1,4.270902929942407
7,19-May-2017,1,1,stim.wav,0,5,673,2.7052577909180897,1,4.270902929942407
7,19-May-2017,1,1,stim.wav,0,6,830,-0.6997342875746246,1,4.270902929942407
7,19-May-2017,1,1,stim.wav,0,7,1004,2.181695420079955,1,4.270902929942407
7,19-May-2017,1,1,stim.wav,0,8,1199,-3.808285215435809,1,4.270902929942407
7,19-May-2017,1,1,stim.wav,0,9,1416,-0.7153251275024433,1,4.270902929942407
7,19-May-2017,1,1,stim.wav,0,10,1657,6.154143511000191,1,4.270902929942407
7,19-May-2017,1,1,stim.wav,0,11,1926,-1.4945294183049087,1,4.270902929942407
7,19-May-2017,1,1,stim.wav,0,12,2226,2.8773522240287264,1,4.270902929942407
7,19-May-2017,1,1,stim.wav,0,13,2560,3.9184932871476286,1,4.270902929942407
7,19-May-2017,1,1,stim.wav,0,14,2932,9.618757291500671,1,4.270902929942407
7,19-May-2017,1,1,stim.wav,0,15,3346,-3.6088837695152036,1,4.270902929942407
7,19-May-2017,1,1,stim.wav,0,16,3808,-0.05723740461156791,1,4.270902929942407
7,19-May-2017,1,1,stim.wav,0,17,4322,7.251937954060872,1,4.270902929942407
7,19-May-2017,1,1,stim.wav,0,18,4895,2.4422886165102815,1,4.270902929942407
7,19-May-2017,1,1,stim.wav,0,19,5534,0.8823500568512919,1,4.270902929942407
7,19-May-2017,1,1,stim.wav,0,20,6245,-2.7813631896042947,1,4.270902929942407
7,19-May-2017,1,1,stim.wav,0,21,7037,-4.250819177841769,1,4.270902929942407
7,19-May-2017,1,1,stim.wav,0,22,7920,-5.871375611319436,1,4.270902929942407
7,19-May-2017,1,1,stim.wav,0,23,8904,-0.8599202550542921,1,4.270902929942407
7,19-May-2017,1,1,stim.wav,0,24,10000,2.0645287078971437,1,4.270902929942407
7,19-May-2017,1,1,stim.wav,1,0,100,4.113656904088587,0,4.270902929942407
7,19-May-2017,1,1,stim.wav,1,1,191,-1.031197597009606,0,4.270902929942407
7,19-May-2017,1,1,stim.wav,1,2,293,-4.360977073514166,0,4.270902929942407
7,19-May-2017,1,1,stim.wav,1,3,406,-8.131776447978057,0,4.270902929942407
7,19-May-2017,1,1,stim.wav,1,4,533,-2.7204208678794806,0,4.270902929942407
7,19-May-2017,1,1,stim.wav,1,5,673,6.397420769105375,0,4.270902929942407
7,19-May-2017,1,1,stim.wav,1,6,830,-2.5529558823134217,0,4.270902929942407
7,19-May-2017,1,1,stim.wav,1,7,1004,7.094566105275356,0,4.270902929942407
7,19-May-2017,1,1,stim.wav,1,8,1199,0.3688706079857852,0,4.270902929942407
7,19-May-2017,1,1,stim.wav,1,9,1416,-4.5715114962548995,0,4.270902929942407
7,19-May-2017,1,1,stim.wav,1,10,1657,2.329903918363229,0,4.270902929942407
7,19-May-2017,1,1,stim.wav,1,11,1926,-2.483589137649638,0,4.270902929942407
7,19-May-2017,1,1,stim.wav,1,12,2226,4.0710098630122875,0,4.270902929942407
7,19-May-2017,1,1,stim.wav,1,13,2560,3.3810457644405645,0,4.270902929942407
7,19-May-2017,1,1,stim.wav,1,14,2932,-2.0409403213356665,0,4.270902929942407
7,19-May-2017,1,1,stim.wav,1,15,3346,-0.4285597674241049,0,4.270902929942407
7,19-May-2017,1,1,stim.wav,1,16,3808,-1.7822848052021265,0,4.270902929942407
7,19-May-2017,1,1,stim.wav,1,17,4322,1.1520556454557405,0,4.270902929942407
7,19-May-2017,1,1,stim.wav,1,18,4895,-0.7618905968423995,0,4.270902929942407
7,19-May-2017,1,1,stim.wav,1,19,5534,4.64812698003006,0,4.270902929942407
7,19-May-2017,1,1,stim.wav,1,20,6245,4.500208242462185,0,4.270902929942407
7,19-May-2017,1,1,stim.wav,1,21,7037,7.233542032149889,0,4.270902929942407
7,19-May-2017,1,1,stim.wav,1,22,7920,-3.1378509300950412,0,4.270902929942407
7,19-May-2017,1,1,stim.wav,1,23,8904,2.10317991582856,0,4.270902929942407
7,19-May-2017,1,1,stim.wav,1,24,10000,6.7131184293639485,0,4.270902929942407
7,19-May-2017,1,2,stim.wav,0,0,100,8.094325276917804,1,2.4847673442019502
7,19-May-2017,1,2,stim.wav,0,1,191,1.6948588345973126,1,2.4847673442019502
7,19-May-2017,1,2,stim.wav,0,2,293,-2.2777641268801334,1,2.4847673442019502
7,19-May-2017,1,2,stim.wav,0,3,406,-1.274068603303069,1,2.4847673442019502
7,19-May-2017,1,2,stim.wav,0,4,533,-6.741619422954852,1,2.4847673442019502
7,19-May-2017,1,2,stim.wav,0,5,673,-2.9676364538684883,1,2.4847673442019502
7,19-May-2017,1,2,stim.wav,0,6,830,0.4099307021514369,1,2.4847673442019502
7,19-May-2017,1,2,stim.wav,0,7,1004,6.47036462325452,1,2.4847673442019502
7,19-May-2017,1,2,stim.wav,0,8,1199,4.78753378471009,1,2.4847673442019502
7,19-May-2017,1,2,stim.wav,0,9,1416,-0.010146517779841262,1,2.4847673442019502
7,19-May-2017,1,2,stim.wav,0,10,1657,-7.314563511832718,1,2.4847673442019502
7,19-May-2017,1,2,stim.wav,0,11,1926,1.976685232368078,1,2.4847673442019502
7,19-May-2017,1,2,stim.wav,0,12,2226,0.6458975670720315,1,2.4847673442019502
7,19-May-2017,1,2,stim.wav,0,13,2560,5.205401099168046,1,2.4847673442019502
7,19-May-2017,1,2,stim.wav,0,14,2932,0.0553780827268415,1,2.4847673442019502
7,19-May-2017,1,2,stim.wav,0,15,3346,3.4966030762966116,1,2.4847673442019502
7,19-May-2017,1,2,stim.wav,0,16,3808,8.386576699419455,1,2.4847673442019502
7,19-May-2017,1,2,stim.wav,0,17,4322,-2.169599419523769,1,2.4847673442019502
7,19-May-2017,1,2,stim.wav,0,18,4895,-2.424390651373214,1,2.4847673442019502
7,19-May-2017,1,2,stim.wav,0,19,5534,-3.664351240097635,1,2.4847673442019502
7,19-May-2017,1,2,stim.wav,0,20,6245,2.0914466079525145,1,2.4847673442019502
7,19-May-2017,1,2,stim.wav,0,21,7037,-3.4371782989847066,1,2.4847673442019502
7,19-May-2017,1,2,stim.wav,0,22,7920,8.028905355698116,1,2.4847673442019502
7,19-May-2017,1,2,stim.wav,0,23,8904,5.046486055751438,1,2.4847673442019502
7,19-May-2017,1,2,stim.wav,0,24,10000,-0.07624724727905104,1,2.4847673442019502
7,19-May-2017,1,2,stim.wav,1,0,100,-0.14900735200093687,0,2.4847673442019502
7,19-May-2017,1,2,stim.wav,1,1,191,-3.171383336020325,0,2.4847673442019502
7,19-May-2017,1,2,stim.wav,1,2,293,-0.6433027327897693,0,2.4847673442019502
7,19-May-2017,1,2,stim.wav,1,3,406,2.757792547821471,0,2.4847673442019502
7,19-May-2017,1,2,stim.wav,1,4,533,6.411918419288018,0,2.4847673442019502
7,19-May-2017,1,2,stim.wav,1,5,673,-0.15240280363209663,0,2.4847673442019502
7,19-May-2017,1,2,stim.wav,1,6,830,-2.8689120810663757,0,2.4847673442019502
7,19-May-2017,1,2,stim.wav,1,7,1004,1.816381685748286,0,2.4847673442019502
7,19-May-2017,1,2,stim.wav,1,8,1199,-4.723132921203864,0,2.4847673442019502
7,19-May-2017,1,2,stim.wav,1,9,1416,-0.8991893819148746,0,2.4847673442019502
7,19-May-2017,1,2,stim.wav,1,10,1657,7.049744063131039,0,2.4847673442019502
7,19-May-2017,1,2,stim.wav,1,11,1926,5.462473762919222,0,2.4847673442019502
7,19-May-2017,1,2,stim.wav,1,12,2226,8.622332187132912,0,2.4847673442019502
7,19-May-2017,1,2,stim.wav,1,13,2560,3.1144898811922883,0,2.4847673442019502
7,19-May-2017,1,2,stim.wav,1,14,2932,-0.6615990541677842,0,2.4847673442019502
7,19-May-2017,1,2,stim.wav,1,15,3346,-4.505935000148489,0,2.4847673442019502
7,19-May-2017,1,2,stim.wav,1,16,3808,-8.314531251840538,0,2.4847673442019502
7,19-May-2017,1,2,stim.wav,1,17,4322,-6.104342484156615,0,2.4847673442019502
7,19-May-2017,1,2,stim.wav,1,18,4895,9.214144747186154,0,2.4847673442019502
7,19-May-2017,1,2,stim.wav,1,19,5534,-4.298938847801894,0,2.4847673442019502
7,19-May-2017,1,2,stim.wav,1,20,6245,6.870720654369141,0,2.4847673442019502
7,19-May-2017,1,2,stim.wav,1,21,7037,-5.627675400143613,0,2.4847673442019502
7,19-May-2017,1,2,stim.wav,1,22,7920,2.0991237015814312,0,2.4847673442019502
7,19-May-2017,1,2,stim.wav,1,23,8904,9.725084501653331,0,2.4847673442019502
7,19-May-2017,1,2,stim.wav,1,24,10000,-1.276765852124142,0,2.4847673442019502
7,19-May-2017,1,3,stim.wav,0,0,100,5.0220343156297265,0,0.8227252278834591
7,19-May-2017,1,3,stim.wav,0,1,191,5.554319708377174,0,0.8227252278834591
7,19-May-2017,1,3,stim.wav,0,2,293,1.261861456246762,0,0.8227252278834591
7,19-May-2017,1,3,stim.wav,0,3,406,3.641366535978261,0,0.8227252278834591
7,19-May-2017,1,3,stim.wav,0,4,533,-3.0039401106597774,0,0.8227252278834591
7,19-May-2017,1,3,stim.wav,0,5,673,1.4810203077937625,0,0.8227252278834591
7,19-May-2017,1,3,stim.wav,0,6,830,3.4264602987672053,0,0.8227252278834591
7,19-May-2017,1,3,stim.wav,0,7,1004,-4.913163356120853,0,0.8227252278834591
7,19-May-2017,1,3,stim.wav,0,8,1199,-6.378342012311066,0,0.8227252278834591
7,19-May-2017,1,3,stim.wav,0,9,1416,6.331419662930671,0,0.8227252278834591
7,19-May-2017,1,3,stim.wav,0,10,1657,-0.9004206510761932,0,0.8227252278834591
7,19-May-2017,1,3,stim.wav,0,11,1926,-0.39383610068829283,0,0.8227252278834591
7,19-May-2017,1,3,stim.wav,0,12,2226,4.0725231812436755,0,0.8227252278834591
7,19-May-2017,1,3,stim.wav,0,13,2560,-0.7459721590799351,0,0.8227252278834591
7,19-May-2017,1,3,stim.wav,0,14,2932,-5.386129190023854,0,0.8227252278834591
7,19-May-2017,1,3,stim.wav,0,15,3346,-6.192622148694365,0,0.8227252278834591
7,19-May-2017,1,3,stim.wav,0,16,3808,4.968719389795428,0,0.8227252278834591
7,19-May-2017,1,3,stim.wav,0,17,4322,-7.484353903407742,0,0.8227252278834591
7,19-May-2017,1,3,stim.wav,0,18,4895,8.496144241425123,0,0.8227252278834591
7,19-May-2017,1,3,stim.wav,0,19,5534,-4.37511929888372,0,0.8227252278834591
7,19-May-2017,1,3,stim.wav,0,20,6245,3.908291915896847,0,0.8227252278834591
7,19-May-2017,1,3,stim.wav,0,21,7037,5.376835841584928,0,0.8227252278834591
7,19-May-2017,1,3,stim.wav,0,22,7920,5.930090529589336,0,0.8227252278834591
7,19-May-2017,1,3,stim.wav,0,23,8904,-1.8719579450760073,0,0.8227252278834591
7,19-May-2017,1,3,stim.wav,0,24,10000,2.831480294511563,0,0.8227252278834591
7,19-May-2017,1,3,stim.wav,1,0,100,-0.30081283080192617,1,0.8227252278834591
7,19-May-2017,1,3,stim.wav,1,1,191,0.7295166719829291,1,0.8227252278834591
7,19-May-2017,1,3,stim.wav,1,2,293,2.552234925423837,1,0.8227252278834591
7,19-May-2017,1,3,stim.wav,1,3,406,5.177957132720876,1,0.8227252278834591
7,19-May-2017,1,3,stim.wav,1,4,533,1.4048285692481195,1,0.8227252278834591
7,19-May-2017,1,3,stim.wav,1,5,673,6.919034845610592,1,0.8227252278834591
7,19-May-2017,1,3,stim.wav,1,6,830,-2.198983096353433,1,0.8227252278834591
7,19-May-2017,1,3,stim.wav,1,7,1004,-0.9351561755910272,1,0.8227252278834591
7,19-May-2017,1,3,stim.wav,1,8,1199,7.544580133107651,1,0.8227252278834591
7,19-May-2017,1,3,stim.wav,1,9,1416,6.088821520089477,1,0.8227252278834591
7,19-May-2017,1,3,stim.wav,1,10,1657,-6.475726357438515,1,0.8227252278834591
7,19-May-2017,1,3,stim.wav,1,11,1926,10.99700956017317,1,0.8227252278834591
7,19-May-2017,1,3,stim.wav,1,12,2226,-2.8491904395467027,1,0.8227252278834591
7,19-May-2017,1,3,stim.wav,1,13,2560,2.707316353064658,1,0.8227252278834591
7,19-May-2017,1,3,stim.wav,1,14,2932,3.655899979027936,1,0.8227252278834591
7,19-May-2017,1,3,stim.wav,1,15,3346,-5.647663499744464,1,0.8227252278834591
7,19-May-2017,1,3,stim.wav,1,16,3808,4.326903532133934,1,0.8227252278834591
7,19-May-2017,1,3,stim.wav,1,17,4322,2.1600927608624874,1,0.8227252278834591
7,19-May-2017,1,3,stim.wav,1,18,4895,-1.3306652373130916,1,0.8227252278834591
7,19-May-2017,1,3,stim.wav,1,19,5534,-9.509491840531592,1,0.8227252278834591
7,19-May-2017,1,3,stim.wav,1,20,6245,1.7298342778999276,1,0.8227252278834591
7,19-May-2017,1,3,stim.wav,1,21,7037,-7.422246013666182,1,0.8227252278834591
7,19-May-2017,1,3,stim.wav,1,22,7920,5.419576342366772,1,0.8227252278834591
7,19-May-2017,1,3,stim.wav,1,23,8904,-4.106343223313185,1,0.8227252278834591
7,19-May-2017,1,3,stim.wav,1,24,10000,4.0275021578016155,1,0.8227252278834591
7,19-May-2017,1,4,stim.wav,0,0,100,6.024878755570454,0,2.7718449109591035
7,19-May-2017,1,4,stim.wav,0,1,191,-1.1092013533724774,0,2.7718449109591035
7,19-May-2017,1,4,stim.wav,0,2,293,5.206720335818368,0,2.7718449109591035
7,19-May-2017,1,4,stim.wav,0,3,406,0.13947543777368276,0,2.7718449109591035
7,19-May-2017,1,4,stim.wav,0,4,533,-2.9768002166752865,0,2.7718449109591035
7,19-May-2017,1,4,stim.wav,0,5,673,-0.15911192190762824,0,2.7718449109591035
7,19-May-2017,1,4,stim.wav,0,6,830,-7.1559432292787974,0,2.7718449109591035
7,19-May-2017,1,4,stim.wav,0,7,1004,1.514402287754692,0,2.7718449109591035
7,19-May-2017,1,4,stim.wav,0,8,1199,-1.459447027647149,0,2.7718449109591035
7,19-May-2017,1,4,stim.wav,0,9,1416,10.429335039815403,0,2.7718449109591035
7,19-May-2017,1,4,stim.wav,0,10,1657,-7.2722725309005405,0,2.7718449109591035
7,19-May-2017,1,4,stim.wav,0,11,1926,1.1332204731294397,0,2.7718449109591035
7,19-May-2017,1,4,stim.wav,0,12,2226,-2.541105312027944,0,2.7718449109591035
7,19-May-2017,1,4,stim.wav,0,13,2560,7.300478924539516,0,2.7718449109591035
7,19-May-2017,1,4,stim.wav,0,14,2932,-0.8718429488559456,0,2.7718449109591035
7,19-May-2017,1,4,stim.wav,0,15,3346,-2.554524244078981,0,2.7718449109591035
7,19-May-2017,1,4,stim.wav,0,16,3808,-11.817743118132235,0,2.7718449109591035
7,19-May-2017,1,4,stim.wav,0,17,4322,2.2619922914935207,0,2.7718449109591035
7,19-May-2017,1,4,stim.wav,0,18,4895,5.081533545395755,0,2.7718449109591035
7,19-May-2017,1,4,stim.wav,0,19,5534,0.7147698323494347,0,2.7718449109591035
7,19-May-2017,1,4,stim.wav,0,20,6245,2.3947348075768824,0,2.7718449109591035
7,19-May-2017,1,4,stim.wav,0,21,7037,-3.195906884309708,0,2.7718449109591035
7,19-May-2017,1,4,stim.wav,0,22,7920,0.7116374485098315,0,2.7718449109591035
7,19-May-2017,1,4,stim.wav,0,23,8904,0.8368566865782391,0,2.7718449109591035
7,19-May-2017,1,4,stim.wav,0,24,10000,0.8492942539018639,0,2.7718449109591035
7,19-May-2017,1,4,stim.wav,1,0,100,-3.795652640878222,1,2.7718449109591035
7,19-May-2017,1,4,stim.wav,1,1,191,-3.8237607398233555,1,2.7718449109591035
7,19-May-2017,1,4,stim.wav,1,2,293,1.3232560481169855,1,2.7718449109591035
7,19-May-2017,1,4,stim.wav,1,3,406,3.3469281342300947,1,2.7718449109591035
7,19-May-2017,1,4,stim.wav,1,4,533,3.9481606586092255,1,2.7718449109591035
7,19-May-2017,1,4,stim.wav,1,5,673,-4.4149966841764146,1,2.7718449109591035
7,19-May-2017,1,4,stim.wav,1,6,830,7.957105317512456,1,2.7718449109591035
7,19-May-2017,1,4,stim.wav,1,7,1004,1.7621400211621554,1,2.7718449109591035
7,19-May-2017,1,4,stim.wav,1,8,1199,6.116484664992638,1,2.7718449109591035
7,19-May-2017,1,4,stim.wav,1,9,1416,5.506675466039269,1,2.7718449109591035
7,19-May-2017,1,4,stim.wav,1,10,1657,-0.7719606213084739,1,2.7718449109591035
7,19-May-2017,1,4,stim.wav,1,11,1926,7.007676174892184,1,2.7718449109591035
7,19-May-2017,1,4,stim.wav,1,12,2226,1.4736872353049233,1,2.7718449109591035
7,19-May-2017,1,4,stim.wav,1,13,2560,10.071159235159545,1,2.7718449109591035
7,19-May-2017,1,4,stim.wav,1,14,2932,-0.27214465243728714,1,2.7718449109591035
7,19-May-2017,1,4,stim.wav,1,15,3346,-10.678800208296675,1,2.7718449109591035
7,19-May-2017,1,4,stim.wav,1,16,3808,4.107472389826852,1,2.7718449109591035
7,19-May-2017,1,4,stim.wav,1,17,4322,2.01396927454579,1,2.7718449109591035
7,19-May-2017,1,4,stim.wav,1,18,4895,-3.8067443872909363,1,2.7718449109591035
7,19-May-2017,1,4,stim.wav,1,19,5534,-2.9351733704912277,1,2.7718449109591035
7,19-May-2017,1,4,stim.wav,1,20,6245,-2.8889174704117093,1,2.7718449109591035
7,19-May-2017,1,4,stim.wav,1,21,7037,-4.963697741930431,1,2.7718449109591035
7,19-May-2017,1,4,stim.wav,1,22,7920,-1.0066711150284298,1,2.7718449109591035
7,19-May-2017,1,4,stim.wav,1,23,8904,4.321762874233949,1,2.7718449109591035
7,19-May-2017,1,4,stim.wav,1,24,10000,0.3736085607181019,1,2.7718449109591035
7,19-May-2017,1,5,stim.wav,0,0,100,5.664925681466018,0,0.6664887730299562
7,19-May-2017,1,5,stim.wav,0,1,191,4.826991665059575,0,0.6664887730299562
7,19-May-2017,1,5,stim.wav,0,2,293,-1.1111648000733279,0,0.6664887730299562
7,19-May-2017,1,5,stim.wav,0,3,406,-7.361615934189714,0,0.6664887730299562
7,19-May-2017,1,5,stim.wav,0,4,533,8.505702504536355,0,0.6664887730299562
7,19-May-2017,1,5,stim.wav,0,5,673,-4.914009984011246,0,0.6664887730299562
7,19-May-2017,1,5,stim.wav,0,6,830,0.5458603541697372,0,0.6664887730299562
7,19-May-2017,1,5,stim.wav,0,7,1004,1.9202302388854797,0,0.6664887730299562
7,19-May-2017,1,5,stim.wav,0,8,1199,-4.441795866286828,0,0.6664887730299562
7,19-May-2017,1,5,stim.wav,0,9,1416,-2.6968646972957844,0,0.6664887730299562
7,19-May-2017,1,5,stim.wav,0,10,1657,-4.561208631590007,0,0.6664887730299562
7,19-May-2017,1,5,stim.wav,0,11,1926,-5.45856300231975,0,0.6664887730299562
7,19-May-2017,1,5,stim.wav,0,12,2226,0.17886216430999077,0,0.6664887730299562
7,19-May-2017,1,5,stim.wav,0,13,2560,-0.045557520840572546,0,0.6664887730299562
7,19-May-2017,1,5,stim.wav,0,14,2932,3.3726585680528007,0,0.6664887730299562
7,19-May-2017,1,5,stim.wav,0,15,3346,-1.4470522591134518,0,0.6664887730299562
7,19-May-2017,1,5,stim.wav,0,16,3808,-6.296392072155718,0,0.6664887730299562
7,19-May-2017,1,5,stim.wav,0,17,4322,-3.848392439625128,0,0.6664887730299562
7,19-May-2017,1,5,stim.wav,0,18,4895,-0.26439240126177693,0,0.6664887730299562
7,19-May-2017,1,5,stim.wav,0,19,5534,-4.5818696022659555,0,0.6664887730299562
7,19-May-2017,1,5,stim.wav,0,20,6245,-5.137744566925699,0,0.6664887730299562
7,19-May-2017,1,5,stim.wav,0,21,7037,3.204222190829464,0,0.6664887730299562
7,19-May-2017,1,5,stim.wav,0,22,7920,-2.658435501497423,0,0.6664887730299562
7,19-May-2017,1,5,stim.wav,0,23,8904,-2.443558179029816,0,0.6664887730299562
7,19-May-2017,1,5,stim.wav,0,24,10000,3.945929388975076,0,0.6664887730299562
7,19-May-2017,1,5,stim.wav,1,0,100,-5.674073125040886,1,0.6664887730299562
7,19-May-2017,1,5,stim.wav,1,1,191,10.209394103968329,1,0.6664887730299562
7,19-May-2017,1,5,stim.wav,1,2,293,3.7814298320282322,1,0.6664887730299562
7,19-May-2017,1,5,stim.wav,1,3,406,2.2744449590706575,1,0.6664887730299562
7,19-May-2017,1,5,stim.wav,1,4,533,-4.640825667832252,1,0.6664887730299562
7,19-May-2017,1,5,stim.wav,1,5,673,6.4280530424654465,1,0.6664887730299562
7,19-May-2017,1,5,stim.wav,1,6,830,-2.068729068998159,1,0.6664887730299562
7,19-May-2017,1,5,stim.wav,1,7,1004,2.8475378652125194,1,0.6664887730299562
7,19-May-2017,1,5,stim.wav,1,8,1199,-5.593744115868118,1,0.6664887730299562
7,19-May-2017,1,5,stim.wav,1,9,1416,-0.04295827569415562,1,0.6664887730299562
7,19-May-2017,1,5,stim.wav,1,10,1657,9.461504084122431,1,0.6664887730299562
7,19-May-2017,1,5,stim.wav,1,11,1926,-10.402249012770838,1,0.6664887730299562
7,19-May-2017,1,5,stim.wav,1,12,2226,1.7988455439646933,1,0.6664887730299562
7,19-May-2017,1,5,stim.wav,1,13,2560,-5.317028820604025,1,0.6664887730299562
7,19-May-2017,1,5,stim.wav,1,14,2932,-1.350185405135993,1,0.6664887730299562
7,19-May-2017,1,5,stim.wav,1,15,3346,-4.88780631540015,1,0.6664887730299562
7,19-May-2017,1,5,stim.wav,1,16,3808,5.653939420020783,1,0.6664887730299562
7,19-May-2017,1,5,stim.wav,1,17,4322,-2.722135316119055,1,0.6664887730299562
7,19-May-2017,1,5,stim.wav,1,18,4895,5.543939806797619,1,0.6664887730299562
7,19-May-2017,1,5,stim.wav,1,19,5534,-1.796107540976539,1,0.6664887730299562
7,19-May-2017,1,5,stim.wav,1,20,6245,9.067746201934492,1,0.6664887730299562
7,19-May-2017,1,5,stim.wav,1,21,7037,3.518770944243141,1,0.6664887730299562
7,19-May-2017,1,5,stim.wav,1,22,7920,-6.827623126679122,1,0.6664887730299562
7,19-May-2017,1,5,stim.wav,1,23,8904,5.461668109452925,1,0.6664887730299562
7,19-May-2017,1,5,stim.wav,1,24,10000,-2.605184512139887,1,0.6664887730299562
7,19-May-2017,1,6,stim.wav,0,0,100,6.4890491715267915,0,1.553889285158368
7,19-May-2017,1,6,stim.wav,0,1,191,2.9086275698327766,0,1.553889285158368
7,19-May-2017,1,6,stim.wav,0,2,293,-5.447959097850648,0,1.553889285158368
7,19-May-2017,1,6,stim.wav,0,3,406,9.843007800744381,0,1.553889285158368
7,19-May-2017,1,6,stim.wav,0,4,533,5.831350431458878,0,1.553889285158368
7,19-May-2017,1,6,stim.wav,0,5,673,-0.4804027794421003,0,1.553889285158368
7,19-May-2017,1,6,stim.wav,0,6,830,-7.611414591004289,0,1.553889285158368
7,19-May-2017,1,6,stim.wav,0,7,1004,3.243122818783193,0,1.553889285158368
7,19-May-2017,1,6,stim.wav,0,8,1199,-1.7673605425842749,0,1.553889285158368
7,19-May-2017,1,6,stim.wav,0,9,1416,-0.9871480577904644,0,1.553889285158368
7,19-May-2017,1,6,stim.wav,0,10,1657,1.4822742350947695,0,1.553889285158368
7,19-May-2017,1,6,stim.wav,0,11,1926,3.466171697186305,0,1.553889285158368
7,19-May-2017,1,6,stim.wav,0,12,2226,1.5649859435582567,0,1.553889285158368
7,19-May-2017,1,6,stim.wav,0,13,2560,-2.121384019663572,0,1.553889285158368
7,19-May-2017,1,6,stim.wav,0,14,2932,1.1891900518478287,0,1.553889285158368
7,19-May-2017,1,6,stim.wav,0,15,3346,-8.19869438485126,0,1.553889285158368
7,19-May-2017,1,6,stim.wav,0,16,3808,-1.002604373184338,0,1.553889285158368
7,19-May-2017,1,6,stim.wav,0,17,4322,0.10083868485898007,0,1.553889285158368
7,19-May-2017,1,6,stim.wav,0,18,4895,-2.0820298214294097,0,1.553889285158368
7,19-May-2017,1,6,stim.wav,0,19,5534,1.5997056249315293,0,1.553889285158368
7,19-May-2017,1,6,stim.wav,0,20,6245,6.317088834550148,0,1.553889285158368
7,19-May-2017,1,6,stim.wav,0,21,7037,-2.73734579284594,0,1.553889285158368
7,19-May-2017,1,6,stim.wav,0,22,7920,7.5389678029235,0,1.553889285158368
7,19-May-2017,1,6,stim.wav,0,23,8904,-5.9493139073646155,0,1.553889285158368
7,19-May-2017,1,6,stim.wav,0,24,10000,6.345271603770551,0,1.553889285158368
7,19-May-2017,1,6,stim.wav,1,0,100,-3.8758522761536325,1,1.553889285158368
7,19-May-2017,1,6,stim.wav,1,1,191,6.08073795992034,1,1.553889285158368
7,19-May-2017,1,6,stim.wav,1,2,293,-7.762964281961563,1,1.553889285158368
7,19-May-2017,1,6,stim.wav,1,3,406,8.683873485042668,1,1.553889285158368
7,19-May-2017,1,6,stim.wav,1,4,533,0.80112269463416,1,1.553889285158368
7,19-May-2017,1,6,stim.wav,1,5,673,5.399118531482693,1,1.553889285158368
7,19-May-2017,1,6,stim.wav,1,6,830,0.7516686264258965,1,1.553889285158368
7,19-May-2017,1,6,stim.wav,1,7,1004,2.964776724049998,1,1.553889285158368
7,19-May-2017,1,6,stim.wav,1,8,1199,-0.22901778073072965,1,1.553889285158368
7,19-May-2017,1,6,stim.wav,1,9,1416,11.730359377343508,1,1.553889285158368
7,19-May-2017,1,6,stim.wav,1,10,1657,-2.249342381914928,1,1.553889285158368
7,19-May-2017,1,6,stim.wav,1,11,1926,-0.7743146560381398,1,1.553889285158368
7,19-May-2017,1,6,stim.wav,1,12,2226,2.246096641697466,1,1.553889285158368
7,19-May-2017,1,6,stim.wav,1,13,2560,-4.177452377707336,1,1.553889285158368
7,19-May-2017,1,6,stim.wav,1,14,2932,-10.062699825703941,1,1.553889285158368
7,19-May-2017,1,6,stim.wav,1,15,3346,5.405153086233284,1,1.553889285158368
7,19-May-2017,1,6,stim.wav,1,16,3808,1.5426055358016135,1,1.553889285158368
7,19-May-2017,1,6,stim.wav,1,17,4322,3.055414688408587,1,1.553889285158368
7,19-May-2017,1,6,stim.wav,1,18,4895,-4.827777253619166,1,1.553889285158368
7,19-May-2017,1,6,stim.wav,1,19,5534,-9.522205940520504,1,1.553889285158368
7,19-May-2017,1,6,stim.wav,1,20,6245,8.74451715482108,1,1.553889285158368
7,19-May-2017,1,6,stim.wav,1,21,7037,-4.140732050980009,1,1.553889285158368
7,19-May-2017,1,6,stim.wav,1,22,7920,0.7336904986038699,1,1.553889285158368
7,19-May-2017,1,6,stim.wav,1,23,8904,5.494904480643631,1,1.553889285158368
7,19-May-2017,1,6,stim.wav,1,24,10000,2.2613554901171637,1,1.553889285158368
7,19-May-2017,1,7,stim.wav,0,0,100,2.0784843805382787,0,2.4468896837085348
7,19-May-2017,1,7,stim.wav,0,1,191,0.31178145779542255,0,2.4468896837085348
7,19-May-2017,1,7,stim.wav,0,2,293,4.611695259696788,0,2.4468896837085348
7,19-May-2017,1,7,stim.wav,0,3,406,-1.3219302023428345,0,2.4468896837085348
7,19-May-2017,1,7,stim.wav,0,4,533,6.072084039601049,0,2.4468896837085348
7,19-May-2017,1,7,stim.wav,0,5,673,10.034553731131856,0,2.4468896837085348
7,19-May-2017,1,7,stim.wav,0,6,830,0.9369073550991253,0,2.4468896837085348
7,19-May-2017,1,7,stim.wav,0,7,1004,-4.3893897621624065,0,2.4468896837085348
7,19-May-2017,1,7,stim.wav,0,8,1199,-5.734116103134166,0,2.4468896837085348
7,19-May-2017,1,7,stim.wav,0,9,1416,0.12251368603640728,0,2.4468896837085348
7,19-May-2017,1,7,stim.wav,0,10,1657,0.9382593987491749,0,2.4468896837085348
7,19-May-2017,1,7,stim.wav,0,11,1926,-4.532572014785466,0,2.4468896837085348
7,19-May-2017,1,7,stim.wav,0,12,2226,0.08536733035128088,0,2.4468896837085348
7,19-May-2017,1,7,stim.wav,0,13,2560,-7.477401926177696,0,2.4468896837085348
7,19-May-2017,1,7,stim.wav,0,14,2932,2.135338301628025,0,2.4468896837085348
7,19-May-2017,1,7,stim.wav,0,15,3346,-7.161418861777609,0,2.4468896837085348
7,19-May-2017,1,7,stim.wav,0,16,3808,3.823283823565038,0,2.4468896837085348
7,19-May-2017,1,7,stim.wav,0,17,4322,0.5314622321987212,0,2.4468896837085348
7,19-May-2017,1,7,stim.wav,0,18,4895,2.864512577343085,0,2.4468896837085348
7,19-May-2017,1,7,stim.wav,0,19,5534,-3.9314088739191346,0,2.4468896837085348
7,19-May-2017,1,7,stim.wav,0,20,6245,6.199471142230138,0,2.4468896837085348
7,19-May-2017,1,7,stim.wav,0,21,7037,-2.0840425948838197,0,2.4468896837085348
7,19-May-2017,1,7,stim.wav,0,22,7920,-3.5346578519171645,0,2.4468896837085348
7,19-May-2017,1,7,stim.wav,0,23,8904,6.389299569687832,0,2.4468896837085348
7,19-May-2017,1,7,stim.wav,0,24,10000,-3.71748320355936,0,2.4468896837085348
7,19-May-2017,1,7,stim.wav,1,0,100,-1.5537671524622017,1,2.4468896837085348
7,19-May-2017,1,7,stim.wav,1,1,191,0.31322617836769173,1,2.4468896837085348
7,19-May-2017,1,7,stim.wav,1,2,293,1.5328374214789362,1,2.4468896837085348
7,19-May-2017,1,7,stim.wav,1,3,406,4.290508633160812,1,2.4468896837085348
7,19-May-2017,1,7,stim.wav,1,4,533,8.228059098441802,1,2.4468896837085348
7,19-May-2017,1,7,stim.wav,1,5,673,10.113329969549028,1,2.4468896837085348
7,19-May-2017,1,7,stim.wav,1,6,830,-1.5440264430349777,1,2.4468896837085348
7,19-May-2017,1,7,stim.wav,1,7,1004,-2.8129597181599575,1,2.4468896837085348
7,19-May-2017,1,7,stim.wav,1,8,1199,4.275201166214208,1,2.4468896837085348
7,19-May-2017,1,7,stim.wav,1,9,1416,2.1691955415385817,1,2.4468896837085348
7,19-May-2017,1,7,stim.wav,1,10,1657,-1.561541373005744,1,2.4468896837085348
7,19-May-2017,1,7,stim.wav,1,11,1926,-10.00883461459281,1,2.4468896837085348
7,19-May-2017,1,7,stim.wav,1,12,2226,-1.5093897147934485,1,2.4468896837085348
7,19-May-2017,1,7,stim.wav,1,13,2560,2.5578929039510516,1,2.4468896837085348
7,19-May-2017,1,7,stim.wav,1,14,2932,2.537170751029689,1,2.4468896837085348
7,19-May-2017,1,7,stim.wav,1,15,3346,-1.3784951359682598,1,2.4468896837085348
7,19-May-2017,1,7,stim.wav,1,16,3808,-6.472318357267483,1,2.4468896837085348
7,19-May-2017,1,7,stim.wav,1,17,4322,4.39181279727501,1,2.4468896837085348
7,19-May-2017,1,7,stim.wav,1,18,4895,5.416153390894687,1,2.4468896837085348
7,19-May-2017,1,7,stim.wav,1,19,5534,0.7649268450895702,1,2.4468896837085348
7,19-May-2017,1,7,stim.wav,1,20,6245,-9.42102555994295,1,2.4468896837085348
7,19-May-2017,1,7,stim.wav,1,21,7037,-6.394724788695126,1,2.4468896837085348
7,19-May-2017,1,7,stim.wav,1,22,7920,-6.562162118174993,1,2.4468896837085348
7,19-May-2017,1,7,stim.wav,1,23,8904,-0.24894366592972467,1,2.4468896837085348
7,19-May-2017,1,7,stim.wav,1,24,10000,3.4709898044814573,1,2.4468896837085348
7,19-May-2017,1,8,stim.wav,0,0,100,3.8544026781012275,1,0.9788614465147386
7,19-May-2017,1,8,stim.wav,0,1,191,7.020515475967671,1,0.9788614465147386
7,19-May-2017,1,8,stim.wav,0,2,293,-7.160932699154877,1,0.9788614465147386
7,19-May-2017,1,8,stim.wav,0,3,406,-0.6950710617432254,1,0.9788614465147386
7,19-May-2017,1,8,stim.wav,0,4,533,-9.136851431567207,1,0.9788614465147386
7,19-May-2017,1,8,stim.wav,0,5,673,-1.0636147009373838,1,0.9788614465147386
7,19-May-2017,1,8,stim.wav,0,6,830,2.138173868363516,1,0.9788614465147386
7,19-May-2017,1,8,stim.wav,0,7,1004,-2.8681566525013387,1,0.9788614465147386
7,19-May-2017,1,8,stim.wav,0,8,1199,2.529921502717735,1,0.9788614465147386
7,19-May-2017,1,8,stim.wav,0,9,1416,-5.9625011747034495,1,0.9788614465147386
7,19-May-2017,1,8,stim.wav,0,10,1657,-9.363144290288425,1,0.9788614465147386
7,19-May-2017,1,8,stim.wav,0,11,1926,-0.3402616005748004,1,0.9788614465147386
7,19-May-2017,1,8,stim.wav,0,12,2226,7.976427199664683,1,0.9788614465147386
7,19-May-2017,1,8,stim.wav,0,13,2560,-2.554042507022785,1,0.9788614465147386
7,19-May-2017,1,8,stim.wav,0,14,2932,-3.8723448299134198,1,0.9788614465147386
7,19-May-2017,1,8,stim.wav,0,15,3346,-3.6802654930125547,1,0.9788614465147386
7,19-May-2017,1,8,stim.wav,0,16,3808,0.9775376552870461,1,0.9788614465147386
7,19-May-2017,1,8,stim.wav,0,17,4322,-1.8948121784971075,1,0.9788614465147386
7,19-May-2017,1,8,stim.wav,0,18,4895,-0.8784114237281947,1,0.9788614465147386
7,19-May-2017,1,8,stim.wav,0,19,5534,-1.7409405570671532,1,0.9788614465147386
7,19-May-2017,1,8,stim.wav,0,20,6245,-4.495243038196479,1,0.9788614465147386
7,19-May-2017,1,8,stim.wav,0,21,7037,-10.533992005012323,1,0.9788614465147386
7,19-May-2017,1,8,stim.wav,0,22,7920,-5.886094479087191,1,0.9788614465147386
7,19-May-2017,1,8,stim.wav,0,23,8904,3.8258907303757543,1,0.9788614465147386
7,19-May-2017,1,8,stim.wav,0,24,10000,-0.05531174033293258,1,0.9788614465147386
7,19-May-2017,1,8,stim.wav,1,0,100,-1.1752998212618309,0,0.9788614465147386
7,19-May-2017,1,8,stim.wav,1,1,191,-1.7254774754098776,0,0.9788614465147386
7,19-May-2017,1,8,stim.wav,1,2,293,-4.824605342520856,0,0.9788614465147386
7,19-May-2017,1,8,stim.wav,1,3,406,2.220932928086173,0,0.9788614465147386
7,19-May-2017,1,8,stim.wav,1,4,533,7.926699379046739,0,0.9788614465147386
7,19-May-2017,1,8,stim.wav,1,5,673,-3.422682791502822,0,0.9788614465147386
7,19-May-2017,1,8,stim.wav,1,6,830,-2.5311076384863513,0,0.9788614465147386
7,19-May-2017,1,8,stim.wav,1,7,1004,5.043711508825268,0,0.9788614465147386
7,19-May-2017,1,8,stim.wav,1,8,1199,-9.979223808026587,0,0.9788614465147386
7,19-May-2017,1,8,stim.wav,1,9,1416,-4.427604706195057,0,0.9788614465147386
7,19-May-2017,1,8,stim.wav,1,10,1657,6.600251776794215,0,0.9788614465147386
7,19-May-2017,1,8,stim.wav,1,11,1926,0.90196118347932,0,0.9788614465147386
7,19-May-2017,1,8,stim.wav,1,12,2226,4.6490706478064805,0,0.9788614465147386
7,19-May-2017,1,8,stim.wav,1,13,2560,-0.0908013395446321,0,0.9788614465147386
7,19-May-2017,1,8,stim.wav,1,14,2932,-8.65175023204555,0,0.9788614465147386
7,19-May-2017,1,8,stim.wav,1,15,3346,1.1783318599724826,0,0.9788614465147386
7,19-May-2017,1,8,stim.wav,1,16,3808,-2.5781857767726146,0,0.9788614465147386
7,19-May-2017,1,8,stim.wav,1,17,4322,-8.716258725351679,0,0.9788614465147386
7,19-May-2017,1,8,stim.wav,1,18,4895,-1.3765154684484275,0,0.9788614465147386
7,19-May-2017,1,8,stim.wav,1,19,5534,2.480706731339783,0,0.9788614465147386
7,19-May-2017,1,8,stim.wav,1,20,6245,1.3093017761767722,0,0.9788614465147386
7,19-May-2017,1,8,stim.wav,1,21,7037,-4.702111743520872,0,0.9788614465147386
7,19-May-2017,1,8,stim.wav,1,22,7920,6.278629577520906,0,0.9788614465147386
7,19-May-2017,1,8,stim.wav,1,23,8904,-4.185751566905271,0,0.9788614465147386
7,19-May-2017,1,8,stim.wav,1,24,10000,-6.507053898306473,0,0.9788614465147386
7,19-May-2017,1,9,stim.wav,0,0,100,5.671097445805905,0,1.4427991563736382
7,19-May-2017,1,9,stim.wav,0,1,191,-8.5965869403938,0,1.4427991563736382
7,19-May-2017,1,9,stim.wav,0,2,293,6.643158367286266,0,1.4427991563736382
7,19-May-2017,1,9,stim.wav,0,3,406,-3.093612820665715,0,1.4427991563736382
7,19-May-2017,1,9,stim.wav,0,4,533,0.8263191833975163,0,1.4427991563736382
7,19-May-2017,1,9,stim.wav,0,5,673,-0.42445258542458736,0,1.4427991563736382
7,19-May-2017,1,9,stim.wav,0,6,830,6.949210584441006,0,1.4427991563736382
7,19-May-2017,1,9,stim.wav,0,7,1004,6.065554612402391,0,1.4427991563736382
7,19-May-2017,1,9,stim.wav,0,8,1199,-3.1758765111378295,0,1.4427991563736382
7,19-May-2017,1,9,stim.wav,0,9,1416,-6.775240087003121,0,1.4427991563736382
7,19-May-2017,1,9,stim.wav,0,10,1657,0.19724320210593005,0,1.4427991563736382
7,19-May-2017,1,9,stim.wav,0,11,1926,5.8672231101989905,0,1.4427991563736382
7,19-May-2017,1,9,stim.wav,0,12,2226,-5.304701015502574,0,1.4427991563736382
7,19-May-2017,1,9,stim.wav,0,13,2560,-9.001344819207073,0,1.4427991563736382
7,19-May-2017,1,9,stim.wav,0,14,2932,0.31683332303447304,0,1.4427991563736382
7,19-May-2017,1,9,stim.wav,0,15,3346,2.1471405078657515,0,1.4427991563736382
7,19-May-2017,1,9,stim.wav,0,16,3808,-1.5291408856620181,0,1.4427991563736382
7,19-May-2017,1,9,stim.wav,0,17,4322,-4.049621003141677,0,1.4427991563736382
7,19-May-2017,1,9,stim.wav,0,18,4895,-0.98815691115614,0,1.4427991563736382
7,19-May-2017,1,9,stim.wav,0,19,5534,-0.3543358049335956,0,1.4427991563736382
7,19-May-2017,1,9,stim.wav,0,20,6245,-2.5034887875930236,0,1.4427991563736382
7,19-May-2017,1,9,stim.wav,0,21,7037,-3.393531615022704,0,1.4427991563736382
7,19-May-2017,1,9,stim.wav,0,22,7920,-7.3217644487615,0,1.4427991563736382
7,19-May-2017,1,9,stim.wav,0,23,8904,-5.856694777155362,0,1.4427991563736382
7,19-May-2017,1,9,stim.wav,0,24,10000,-2.33412279849617,0,1.4427991563736382
7,19-May-2017,1,9,stim.wav,1,0,100,-2.6712329560341774,1,1.4427991563736382
7,19-May-2017,1,9,stim.wav,1,1,191,-1.9028020513945154,1,1.4427991563736382
7,19-May-2017,1,9,stim.wav,1,2,293,3.184718771804432,1,1.4427991563736382
7,19-May-2017,1,9,stim.wav,1,3,406,-7.6359980093954425,1,1.4427991563736382
7,19-May-2017,1,9,stim.wav,1,4,533,1.1914702380150854,1,1.4427991563736382
7,19-May-2017,1,9,stim.wav,1,5,673,2.5685468706204526,1,1.4427991563736382
7,19-May-2017,1,9,stim.wav,1,6,830,-0.2719284523038164,1,1.4427991563736382
7,19-May-2017,1,9,stim.wav,1,7,1004,-0.5584824173863354,1,1.4427991563736382
7,19-May-2017,1,9,stim.wav,1,8,1199,-2.218727507977289,1,1.4427991563736382
7,19-May-2017,1,9,stim.wav,1,9,1416,0.7526917266073672,1,1.4427991563736382
7,19-May-2017,1,9,stim.wav,1,10,1657,-4.233834894138068,1,1.4427991563736382
7,19-May-2017,1,9,stim.wav,1,11,1926,4.962176192832653,1,1.4427991563736382
7,19-May-2017,1,9,stim.wav,1,12,2226,1.1551597671029066,1,1.4427991563736382
7,19-May-2017,1,9,stim.wav,1,13,2560,-6.872305591235476,1,1.4427991563736382
7,19-May-2017,1,9,stim.wav,1,14,2932,-0.8788328554274066,1,1.4427991563736382
7,19-May-2017,1,9,stim.wav,1,15,3346,3.904302485126065,1,1.4427991563736382
7,19-May-2017,1,9,stim.wav,1,16,3808,-3.0855423903091346,1,1.4427991563736382
7,19-May-2017,1,9,stim.wav,1,17,4322,8.03318109986629,1,1.4427991563736382
7,19-May-2017,1,9,stim.wav,1,18,4895,-4.641076788036946,1,1.4427991563736382
7,19-May-2017,1,9,stim.wav,1,19,5534,-4.67734453358443,1,1.4427991563736382
7,19-May-2017,1,9,stim.wav,1,20,6245,-1.72238869859035,1,1.4427991563736382
7,19-May-2017,1,9,stim.wav,1,21,7037,-3.810924562901394,1,1.4427991563736382
7,19-May-2017,1,9,stim.wav,1,22,7920,2.5385784904075868,1,1.4427991563736382
7,19-May-2017,1,9,stim.wav,1,23,8904,1.2000024231668136,1,1.4427991563736382
7,19-May-2017,1,9,stim.wav,1,24,10000,7.348608172873096,1,1.4427991563736382
7,19-May-2017,1,10,stim.wav,0,0,100,-0.145191425933195,1,4.5469846173319715
7,19-May-2017,1,10,stim.wav,0,1,191,-3.3544435906372003,1,4.5469846173319715
7,19-May-2017,1,10,stim.wav,0,2,293,4.643551827443052,1,4.5469846173319715
7,19-May-2017,1,10,stim.wav,0,3,406,0.3757627930927292,1,4.5469846173319715
7,19-May-2017,1,10,stim.wav,0,4,533,-7.0734277271013415,1,4.5469846173319715
7,19-May-2017,1,10,stim.wav,0,5,673,-7.128388894334419,1,4.5469846173319715
7,19-May-2017,1,10,stim.wav,0,6,830,8.671266274394672,1,4.5469846173319715
7,19-May-2017,1,10,stim.wav,0,7,1004,7.481127047147739,1,4.5469846173319715
7,19-May-2017,1,10,stim.wav,0,8,1199,0.6010438432833736,1,4.5469846173319715
7,19-May-2017,1,10,stim.wav,0,9,1416,-4.998558083102634,1,4.5469846173319715
7,19-May-2017,1,10,stim.wav,0,10,1657,-2.6354445902929284,1,4.5469846173319715
7,19-May-2017,1,10,stim.wav,0,11,1926,-0.019913634566925943,1,4.5469846173319715
7,19-May-2017,1,10,stim.wav,0,12,2226,-3.3404074587535506,1,4.5469846173319715
7,19-May-2017,1,10,stim.wav,0,13,2560,-8.407862288287399,1,4.5469846173319715
7,19-May-2017,1,10,stim.wav,0,14,2932,-1.1839797074146723,1,4.5469846173319715
7,19-May-2017,1,10,stim.wav,0,15,3346,1.5039613576399269,1,4.5469846173319715
7,19-May-2017,1,10,stim.wav,0,16,3808,2.2723144799351345,1,4.5469846173319715
7,19-May-2017,1,10,stim.wav,0,17,4322,6.367276113889885,1,4.5469846173319715
7,19-May-2017,1,10,stim.wav,0,18,4895,-3.332460234518078,1,4.5469846173319715
7,19-May-2017,1,10,stim.wav,0,19,5534,7.72024652035137,1,4.5469846173319715
7,19-May-2017,1,10,stim.wav,0,20,6245,0.40142799206614405,1,4.5469846173319715
7,19-May-2017,1,10,stim.wav,0,21,7037,-3.87227584980939,1,4.5469846173319715
7,19-May-2017,1,10,stim.wav,0,22,7920,-4.749943393862431,1,4.5469846173319715
7,19-May-2017,1,10,stim.wav,0,23,8904,2.758803123787173,1,4.5469846173319715
7,19-May-2017,1,10,stim.wav,0,24,10000,-6.82730569566365,1,4.5469846173319715
7,19-May-2017,1,10,stim.wav,1,0,100,2.224006431633894,0,4.5469846173319715
7,19-May-2017,1,10,stim.wav,1,1,191,-7.033722520573321,0,4.5469846173319715
7,19-May-2017,1,10,stim.wav,1,2,293,-7.709142528425774,0,4.5469846173319715
7,19-May-2017,1,10,stim.wav,1,3,406,8.474055088329063,0,4.5469846173319715
7,19-May-2017,1,10,stim.wav,1,4,533,-10.55738587340107,0,4.5469846173319715
7,19-May-2017,1,10,stim.wav,1,5,673,5.123098055623964,0,4.5469846173319715
7,19-May-2017,1,10,stim.wav,1,6,830,4.893440810425099,0,4.5469846173319715
7,19-May-2017,1,10,stim.wav,1,7,1004,-0.9988073990673095,0,4.5469846173319715
7,19-May-2017,1,10,stim.wav,1,8,1199,-6.003455881293723,0,4.5469846173319715
7,19-May-2017,1,10,stim.wav,1,9,1416,-1.7384607960256901,0,4.5469846173319715
7,19-May-2017,1,10,stim.wav,1,10,1657,3.092135015591435,0,4.5469846173319715
7,19-May-2017,1,10,stim.wav,1,11,1926,-10.976523089223146,0,4.5469846173319715
7,19-May-2017,1,10,stim.wav,1,12,2226,7.372073412457781,0,4.5469846173319715
7,19-May-2017,1,10,stim.wav,1,13,2560,1.5169832360406352,0,4.5469846173319715
7,19-May-2017,1,10,stim.wav,1,14,2932,-4.722390656439935,0,4.5469846173319715
7,19-May-2017,1,10,stim.wav,1,15,3346,-2.936617211431081,0,4.5469846173319715
7,19-May-2017,1,10,stim.wav,1,16,3808,4.391108656526673,0,4.5469846173319715
7,19-May-2017,1,10,stim.wav,1,17,4322,-3.1647252088013165,0,4.5469846173319715
7,19-May-2017,1,10,stim.wav,1,18,4895,-2.7088441700975334,0,4.5469846173319715
7,19-May-2017,1,10,stim.wav,1,19,5534,-0.11370696604180053,0,4.5469846173319715
7,19-May-2017,1,10,stim.wav,1,20,6245,4.308627133675007,0,4.5469846173319715
7,19-May-2017,1,10,stim.wav,1,21,7037,9.535589428281032,0,4.5469846173319715
7,19-May-2017,1,10,stim.wav,1,22,7920,0.94236116947506,0,4.5469846173319715
7,19-May-2017,1,10,stim.wav,1,23,8904,5.34353648101653,0,4.5469846173319715
7,19-May-2017,1,10,stim.wav,1,24,10000,-2.7152866855843065,0,4.5469846173319715
7,19-May-2017,1,11,stim.wav,0,0,100,-2.4590681020276857,1,0.7904659273817649
7,19-May-2017,1,11,stim.wav,0,1,191,4.110681790505495,1,0.7904659273817649
7,19-May-2017,1,11,stim.wav,0,2,293,-6.811715597980022,1,0.7904659273817649
7,19-May-2017,1,11,stim.wav,0,3,406,1.4157341372086565,1,0.7904659273817649
7,19-May-2017,1,11,stim.wav,0,4,533,-5.601228529353031,1,0.7904659273817649
7,19-May-2017,1,11,stim.wav,0,5,673,-0.7682681197537454,1,0.7904659273817649
7,19-May-2017,1,11,stim.wav,0,6,830,-10.4380828171163,1,0.7904659273817649
7,19-May-2017,1,11,stim.wav,0,7,1004,1.8473603387235853,1,0.7904659273817649
7,19-May-2017,1,11,stim.wav,0,8,1199,-2.7643202285897512,1,0.7904659273817649
7,19-May-2017,1,11,stim.wav,0,9,1416,8.683694005406931,1,0.7904659273817649
7,19-May-2017,1,11,stim.wav,0,10,1657,0.9078166693223054,1,0.7904659273817649
7,19-May-2017,1,11,stim.wav,0,11,1926,0.8508459240618099,1,0.7904659273817649
7,19-May-2017,1,11,stim.wav,0,12,2226,-7.951044410011886,1,0.7904659273817649
7,19-May-2017,1,11,stim.wav,0,13,2560,5.241499332088262,1,0.7904659273817649
7,19-May-2017,1,11,stim.wav,0,14,2932,8.435122697416157,1,0.7904659273817649
7,19-May-2017,1,11,stim.wav,0,15,3346,-3.6956466214361723,1,0.7904659273817649
7,19-May-2017,1,11,stim.wav,0,16,3808,3.74116065262953,1,0.7904659273817649
7,19-May-2017,1,11,stim.wav,0,17,4322,0.6127645658403031,1,0.7904659273817649
7,19-May-2017,1,11,stim.wav,0,18,4895,-3.8412226386664376,1,0.7904659273817649
7,19-May-2017,1,11,stim.wav,0,19,5534,-2.93673255086445,1,0.7904659273817649
7,19-May-2017,1,11,stim.wav,0,20,6245,7.367308321029638,1,0.7904659273817649
7,19-May-2017,1,11,stim.wav,0,21,7037,3.03425833134109,1,0.7904659273817649
7,19-May-2017,1,11,stim.wav,0,22,7920,-7.65209703968067,1,0.7904659273817649
7,19-May-2017,1,11,stim.wav,0,23,8904,3.3179071922716186,1,0.7904659273817649
7,19-May-2017,1,11,stim.wav,0,24,10000,-0.11172151261570529,1,0.7904659273817649
7,19-May-2017,1,11,stim.wav,1,0,100,8.514437567342544,0,0.7904659273817649
7,19-May-2017,1,11,stim.wav,1,1,191,-8.989872527628004,0,0.7904659273817649
7,19-May-2017,1,11,stim.wav,1,2,293,-8.636488362578076,0,0.7904659273817649
7,19-May-2017,1,11,stim.wav,1,3,406,-9.330654703262374,0,0.7904659273817649
7,19-May-2017,1,11,stim.wav,1,4,533,-3.3677355701486316,0,0.7904659273817649
7,19-May-2017,1,11,stim.wav,1,5,673,-3.4087524569260093,0,0.7904659273817649
7,19-May-2017,1,11,stim.wav,1,6,830,4.165009684643213,0,0.7904659273817649
7,19-May-2017,1,11,stim.wav,1,7,1004,-6.159578827524733,0,0.7904659273817649
7,19-May-2017,1,11,stim.wav,1,8,1199,1.4310429634590993,0,0.7904659273817649
7,19-May-2017,1,11,stim.wav,1,9,1416,-2.4966569854400724,0,0.7904659273817649
7,19-May-2017,1,11,stim.wav,1,10,1657,-5.73755443790954,0,0.7904659273817649
7,19-May-2017,1,11,stim.wav,1,11,1926,11.288810222555234,0,0.7904659273817649
7,19-May-2017,1,11,stim.wav,1,12,2226,-9.02023729384048,0,0.7904659273817649
7,19-May-2017,1,11,stim.wav,1,13,2560,5.689161468008635,0,0.7904659273817649
7,19-May-2017,1,11,stim.wav,1,14,2932,4.8975767592570865,0,0.7904659273817649
7,19-May-2017,1,11,stim.wav,1,15,3346,5.895526650521408,0,0.7904659273817649
7,19-May-2017,1,11,stim.wav,1,16,3808,4.371994385568732,0,0.7904659273817649
7,19-May-2017,1,11,stim.wav,1,17,4322,6.97351398246791,0,0.7904659273817649
7,19-May-2017,1,11,stim.wav,1,18,4895,6.339858033198606,0,0.7904659273817649
7,19-May-2017,1,11,stim.wav,1,19,5534,1.822557674294849,0,0.7904659273817649
7,19-May-2017,1,11,stim.wav,1,20,6245,1.7601872771320397,0,0.7904659273817649
7,19-May-2017,1,11,stim.wav,1,21,7037,-0.10957450742571323,0,0.7904659273817649
7,19-May-2017,1,11,stim.wav,1,22,7920,-7.5213091288281575,0,0.7904659273817649
7,19-May-2017,1,11,stim.wav,1,23,8904,-3.004474194855267,0,0.7904659273817649
7,19-May-2017,1,11,stim.wav,1,24,10000,-4.589098361948301,0,0.7904659273817649
7,19-May-2017,1,12,stim.wav,0,0,100,4.831515714780879,1,0.8764025801419386
7,19-May-2017,1,12,stim.wav,0,1,191,2.9708703536826118,1,0.8764025801419386
7,19-May-2017,1,12,stim.wav,0,2,293,2.515595384805537,1,0.8764025801419386
7,19-May-2017,1,12,stim.wav,0,3,406,-4.674893589968788,1,0.8764025801419386
7,19-May-2017,1,12,stim.wav,0,4,533,-2.6944176738094283,1,0.8764025801419386
7,19-May-2017,1,12,stim.wav,0,5,673,-5.112305254189344,1,0.8764025801419386
7,19-May-2017,1,12,stim.wav,0,6,830,-0.9247384541984334,1,0.8764025801419386
7,19-May-2017,1,12,stim.wav,0,7,1004,-0.7680736592031173,1,0.8764025801419386
7,19-May-2017,1,12,stim.wav,0,8,1199,-1.0788436262332877,1,0.8764025801419386
7,19-May-2017,1,12,stim.wav,0,9,1416,-11.420819997290096,1,0.8764025801419386
7,19-May-2017,1,12,stim.wav,0,10,1657,5.131505258121356,1,0.8764025801419386
7,19-May-2017,1,12,stim.wav,0,11,1926,-1.686679414558688,1,0.8764025801419386
7,19-May-2017,1,12,stim.wav,0,12,2226,-0.9499116333694524,1,0.8764025801419386
7,19-May-2017,1,12,stim.wav,0,13,2560,-6.486828193014249,1,0.8764025801419386
7,19-May-2017,1,12,stim.wav,0,14,2932,-4.3513954066817035,1,0.8764025801419386
7,19-May-2017,1,12,stim.wav,0,15,3346,6.264073211449359,1,0.8764025801419386
7,19-May-2017,1,12,stim.wav,0,16,3808,-5.600304396297311,1,0.8764025801419386
7,19-May-2017,1,12,stim.wav,0,17,4322,-1.1429623924471304,1,0.8764025801419386
7,19-May-2017,1,12,stim.wav,0,18,4895,-0.9844199850529753,1,0.8764025801419386
7,19-May-2017,1,12,stim.wav,0,19,5534,-1.6917134088675942,1,0.8764025801419386
7,19-May-2017,1,12,stim.wav,0,20,6245,10.241789077993078,1,0.8764025801419386
7,19-May-2017,1,12,stim.wav,0,21,7037,6.784161164854935,1,0.8764025801419386
7,19-May-2017,1,12,stim.wav,0,22,7920,2.569596900421702,1,0.8764025801419386
7,19-May-2017,1,12,stim.wav,0,23,8904,-0.5174766889916282,1,0.8764025801419386
7,19-May-2017,1,12,stim.wav,0,24,10000,-1.2014300673166791,1,0.8764025801419386
7,19-May-2017,1,12,stim.wav,1,0,100,-4.318404160814462,0,0.8764025801419386
7,19-May-2017,1,12,stim.wav,1,1,191,-4.365056620036225,0,0.8764025801419386
7,19-May-2017,1,12,stim.wav,1,2,293,5.648832897681605,0,0.8764025801419386
7,19-May-2017,1,12,stim.wav,1,3,406,-0.4705563045455008,0,0.8764025801419386
7,19-May-2017,1,12,stim.wav,1,4,533,7.2202493072302385,0,0.8764025801419386
7,19-May-2017,1,12,stim.wav,1,5,673,-3.597471867162661,0,0.8764025801419386
7,19-May-2017,1,12,stim.wav,1,6,830,1.0778863375342858,0,0.8764025801419386
7,19-May-2017,1,12,stim.wav,1,7,1004,-1.8683315251814765,0,0.8764025801419386
7,19-May-2017,1,12,stim.wav,1,8,1199,11.33459528899027,0,0.8764025801419386
7,19-May-2017,1,12,stim.wav,1,9,1416,2.2700983183345596,0,0.8764025801419386
7,19-May-2017,1,12,stim.wav,1,10,1657,0.9377537559563998,0,0.8764025801419386
7,19-May-2017,1,12,stim.wav,1,11,1926,5.224422203508219,0,0.8764025801419386
7,19-May-2017,1,12,stim.wav,1,12,2226,-3.1404265154350934,0,0.8764025801419386
7,19-May-2017,1,12,stim.wav,1,13,2560,-1.2574012422273224,0,0.8764025801419386
7,19-May-2017,1,12,stim.wav,1,14,2932,-3.0465257734573137,0,0.8764025801419386
7,19-May-2017,1,12,stim.wav,1,15,3346,10.690143868534165,0,0.8764025801419386
7,19-May-2017,1,12,stim.wav,1,16,3808,0.916143463306262,0,0.8764025801419386
7,19-May-2017,1,12,stim.wav,1,17,4322,-1.0005251776040878,0,0.8764025801419386
7,19-May-2017,1,12,stim.wav,1,18,4895,0.7769241629213581,0,0.8764025801419386
7,19-May-2017,1,12,stim.wav,1,19,5534,-0.7341664679266955,0,0.8764025801419386
7,19-May-2017,1,12,stim.wav,1,20,6245,-3.393664165899284,0,0.8764025801419386
7,19-May-2017,1,12,stim.wav,1,21,7037,1.4971483163930424,0,0.8764025801419386
7,19-May-2017,1,12,stim.wav,1,22,7920,-5.532480714046803,0,0.8764025801419386
7,19-May-2017,1,12,stim.wav,1,23,8904,2.6227196221176374,0,0.8764025801419386
7,19-May-2017,1,12,stim.wav,1,24,10000,3.645812586266116,0,0.8764025801419386
7,19-May-2017,1,13,stim.wav,0,0,100,-5.1494997096036315,1,1.4677716598331563
7,19-May-2017,1,13,stim.wav,0,1,191,-5.531933802631973,1,1.4677716598331563
7,19-May-2017,1,13,stim.wav,0,2,293,6.111625989597579,1,1.4677716598331563
7,19-May-2017,1,13,stim.wav,0,3,406,-12.416864830261252,1,1.4677716598331563
7,19-May-2017,1,13,stim.wav,0,4,533,-4.060782211870707,1,1.4677716598331563
7,19-May-2017,1,13,stim.wav,0,5,673,-3.0732741674265185,1,1.4677716598331563
7,19-May-2017,1,13,stim.wav,0,6,830,-5.057310379366661,1,1.4677716598331563
7,19-May-2017,1,13,stim.wav,0,7,1004,-0.8280971243964603,1,1.4677716598331563
7,19-May-2017,1,13,stim.wav,0,8,1199,-3.211022338842635,1,1.4677716598331563
7,19-May-2017,1,13,stim.wav,0,9,1416,-3.706541749489592,1,1.4677716598331563
7,19-May-2017,1,13,stim.wav,0,10,1657,3.6301724661149177,1,1.4677716598331563
7,19-May-2017,1,13,stim.wav,0,11,1926,4.383026597146016,1,1.4677716598331563
7,19-May-2017,1,13,stim.wav,0,12,2226,6.215078191433204,1,1.4677716598331563
7,19-May-2017,1,13,stim.wav,0,13,2560,6.264672028794388,1,1.4677716598331563
7,19-May-2017,1,13,stim.wav,0,14,2932,0.4532622396837019,1,1.4677716598331563
7,19-May-2017,1,13,stim.wav,0,15,3346,-1.0152744231673925,1,1.4677716598331563
7,19-May-2017,1,13,stim.wav,0,16,3808,-4.8784009191409226,1,1.4677716598331563
7,19-May-2017,1,13,stim.wav,0,17,4322,3.704543448907655,1,1.4677716598331563
7,19-May-2017,1,13,stim.wav,0,18,4895,-3.1393754473338635,1,1.4677716598331563
7,19-May-2017,1,13,stim.wav,0,19,5534,-2.4211738110100285,1,1.4677716598331563
7,19-May-2017,1,13,stim.wav,0,20,6245,-4.388974281358188,1,1.4677716598331563
7,19-May-2017,1,13,stim.wav,0,21,7037,0.5624599195752679,1,1.4677716598331563
7,19-May-2017,1,13,stim.wav,0,22,7920,2.1279207122902672,1,1.4677716598331563
7,19-May-2017,1,13,stim.wav,0,23,8904,4.760460190510128,1,1.4677716598331563
7,19-May-2017,1,13,stim.wav,0,24,10000,-2.0130082931472897,1,1.4677716598331563
7,19-May-2017,1,13,stim.wav,1,0,100,-1.4305020953428587,0,1.4677716598331563
7,19-May-2017,1,13,stim.wav,1,1,191,-7.224105887329709,0,1.4677716598331563
7,19-May-2017,1,13,stim.wav,1,2,293,-4.601485250445293,0,1.4677716598331563
7,19-May-2017,1,13,stim.wav,1,3,406,-4.722341951940193,0,1.4677716598331563
7,19-May-2017,1,13,stim.wav,1,4,533,-1.1918690324052548,0,1.4677716598331563
7,19-May-2017,1,13,stim.wav,1,5,673,2.891961544643821,0,1.4677716598331563
7,19-May-2017,1,13,stim.wav,1,6,830,-3.0737064925712,0,1.4677716598331563
7,19-May-2017,1,13,stim.wav,1,7,1004,4.386566281410008,0,1.4677716598331563
7,19-May-2017,1,13,stim.wav,1,8,1199,6.055283751641705,0,1.4677716598331563
7,19-May-2017,1,13,stim.wav,1,9,1416,8.226934179468802,0,1.4677716598331563
7,19-May-2017,1,13,stim.wav,1,10,1657,3.0551009414689108,0,1.4677716598331563
7,19-May-2017,1,13,stim.wav,1,11,1926,9.541047550116803,0,1.4677716598331563
7,19-May-2017,1,13,stim.wav,1,12,2226,-0.607965546278731,0,1.4677716598331563
7,19-May-2017,1,13,stim.wav,1,13,2560,-2.081721192305275,0,1.4677716598331563
7,19-May-2017,1,13,stim.wav,1,14,2932,-1.9344242767515434,0,1.4677716598331563
7,19-May-2017,1,13,stim.wav,1,15,3346,2.36079912328842,0,1.4677716598331563
7,19-May-2017,1,13,stim.wav,1,16,3808,-0.0717938868463505,0,1.4677716598331563
7,19-May-2017,1,13,stim.wav,1,17,4322,-0.9848469955448125,0,1.4677716598331563
7,19-May-2017,1,13,stim.wav,1,18,4895,0.9501540140920444,0,1.4677716598331563
7,19-May-2017,1,13,stim.wav,1,19,5534,5.089073477564572,0,1.4677716598331563
7,19-May-2017,1,13,stim.wav,1,20,6245,-5.477309951167769,0,1.4677716598331563
7,19-May-2017,1,13,stim.wav,1,21,7037,-6.9636148357639085,0,1.4677716598331563
7,19-May-2017,1,13,stim.wav,1,22,7920,4.325899223015902,0,1.4677716598331563
7,19-May-2017,1,13,stim.wav,1,23,8904,0.18770392398734198,0,1.4677716598331563
7,19-May-2017,1,13,stim.wav,1,24,10000,9.14839542015044,0,1.4677716598331563
7,19-May-2017,1,14,stim.wav,0,0,100,0.4566489221379482,0,5.548667080611475
7,19-May-2017,1,14,stim.wav,0,1,191,-8.556765217864033,0,5.548667080611475
7,19-May-2017,1,14,stim.wav,0,2,293,5.455951627346895,0,5.548667080611475
7,19-May-2017,1,14,stim.wav,0,3,406,-3.1217787669009494,0,5.548667080611475
7,19-May-2017,1,14,stim.wav,0,4,533,7.160291078313775,0,5.548667080611475
7,19-May-2017,1,14,stim.wav,0,5,673,8.099037734247466,0,5.548667080611475
7,19-May-2017,1,14,stim.wav,0,6,830,1.151017779527515,0,5.548667080611475
7,19-May-2017,1,14,stim.wav,0,7,1004,-0.6979509239790738,0,5.548667080611475
7,19-May-2017,1,14,stim.wav,0,8,1199,1.6736641956147738,0,5.548667080611475
7,19-May-2017,1,14,stim.wav,0,9,1416,10.042692896587798,0,5.548667080611475
7,19-May-2017,1,14,stim.wav,0,10,1657,-0.9279445939260565,0,5.548667080611475
7,19-May-2017,1,14,stim.wav,0,11,1926,0.15059425971010906,0,5.548667080611475
7,19-May-2017,1,14,stim.wav,0,12,2226,-4.485689700118359,0,5.548667080611475
7,19-May-2017,1,14,stim.wav,0,13,2560,6.688322151438168,0,5.548667080611475
7,19-May-2017,1,14,stim.wav,0,14,2932,3.1294517365795715,0,5.548667080611475
7,19-May-2017,1,14,stim.wav,0,15,3346,-3.3974831890855945,0,5.548667080611475
7,19-May-2017,1,14,stim.wav,0,16,3808,-2.202717825485374,0,5.548667080611475
7,19-May-2017,1,14,stim.wav,0,17,4322,-8.441163235801797,0,5.548667080611475
7,19-May-2017,1,14,stim.wav,0,18,4895,5.989625688604829,0,5.548667080611475
7,19-May-2017,1,14,stim.wav,0,19,5534,7.768023661523586,0,5.548667080611475
7,19-May-2017,1,14,stim.wav,0,20,6245,-2.5192901220578117,0,5.548667080611475
7,19-May-2017,1,14,stim.wav,0,21,7037,-4.848518023846263,0,5.548667080611475
7,19-May-2017,1,14,stim.wav,0,22,7920,-9.28905051712851,0,5.548667080611475
7,19-May-2017,1,14,stim.wav,0,23,8904,-4.239312144089426,0,5.548667080611475
7,19-May-2017,1,14,stim.wav,0,24,10000,4.8401337716852275,0,5.548667080611475
7,19-May-2017,1,14,stim.wav,1,0,100,8.288811333746382,1,5.548667080611475
7,19-May-2017,1,14,stim.wav,1,1,191,-0.12439672610480271,1,5.548667080611475
7,19-May-2017,1,14,stim.wav,1,2,293,6.49836072859428,1,5.548667080611475
7,19-May-2017,1,14,stim.wav,1,3,406,6.6782278124147245,1,5.548667080611475
7,19-May-2017,1,14,stim.wav,1,4,533,-1.6230854187128827,1,5.548667080611475
7,19-May-2017,1,14,stim.wav,1,5,673,0.398767594585287,1,5.548667080611475
7,19-May-2017,1,14,stim.wav,1,6,830,-0.6242133621108172,1,5.548667080611475
7,19-May-2017,1,14,stim.wav,1,7,1004,5.462255408653466,1,5.548667080611475
7,19-May-2017,1,14,stim.wav,1,8,1199,4.263811592576758,1,5.548667080611475
7,19-May-2017,1,14,stim.wav,1,9,1416,4.549395185694935,1,5.548667080611475
7,19-May-2017,1,14,stim.wav,1,10,1657,-0.25948078485088727,1,5.548667080611475
7,19-May-2017,1,14,stim.wav,1,11,1926,-2.6020636586569923,1,5.548667080611475
7,19-May-2017,1,14,stim.wav,1,12,2226,4.977629249327765,1,5.548667080611475
7,19-May-2017,1,14,stim.wav,1,13,2560,-2.236093848956279,1,5.548667080611475
7,19-May-2017,1,14,stim.wav,1,14,2932,-1.8212417995886723,1,5.548667080611475
7,19-May-2017,1,14,stim.wav,1,15,3346,0.6695894589821203,1,5.548667080611475
7,19-May-2017,1,14,stim.wav,1,16,3808,-2.169236098359667,1,5.548667080611475
7,19-May-2017,1,14,stim.wav,1,17,4322,0.7016660206203674,1,5.548667080611475
7,19-May-2017,1,14,stim.wav,1,18,4895,-7.400781330772793,1,5.548667080611475
7,19-May-2017,1,14,stim.wav,1,19,5534,1.169405190424527,1,5.548667080611475
7,19-May-2017,1,14,stim.wav,1,20,6245,5.300392471615112,1,5.548667080611475
7,19-May-2017,1,14,stim.wav,1,21,7037,-1.4749230138231528,1,5.548667080611475
7,19-May-2017,1,14,stim.wav,1,22,7920,7.983997053340126,1,5.548667080611475
7,19-May-2017,1,14,stim.wav,1,23,8904,4.82366695402418,1,5.548667080611475
7,19-May-2017,1,14,stim.wav,1,24,10000,4.914451576950825,1,5.548667080611475
7,19-May-2017,1,15,stim.wav,0,0,100,4.064701695101924,1,5.620775582045742
7,19-May-2017,1,15,stim.wav,0,1,191,6.445600821604163,1,5.620775582045742
7,19-May-2017,1,15,stim.wav,0,2,293,-5.529979399405347,1,5.620775582045742
7,19-May-2017,1,15,stim.wav,0,3,406,5.805075537758216,1,5.620775582045742
7,19-May-2017,1,15,stim.wav,0,4,533,2.3742169972077436,1,5.620775582045742
7,19-May-2017,1,15,stim.wav,0,5,673,-2.4257460068574836,1,5.620775582045742
7,19-May-2017,1,15,stim.wav,0,6,830,5.034228644810539,1,5.620775582045742
7,19-May-2017,1,15,stim.wav,0,7,1004,-2.194908138028816,1,5.620775582045742
7,19-May-2017,1,15,stim.wav,0,8,1199,-3.361801524992819,1,5.620775582045742
7,19-May-2017,1,15,stim.wav,0,9,1416,0.4128384749336741,1,5.620775582045742
7,19-May-2017,1,15,stim.wav,0,10,1657,9.114873369509143,1,5.620775582045742
7,19-May-2017,1,15,stim.wav,0,11,1926,2.0715107563475192,1,5.620775582045742
7,19-May-2017,1,15,stim.wav,0,12,2226,7.224232896322337,1,5.620775582045742
7,19-May-2017,1,15,stim.wav,0,13,2560,2.9411084416771978,1,5.620775582045742
7,19-May-2017,1,15,stim.wav,0,14,2932,-3.003343997189755,1,5.620775582045742
7,19-May-2017,1,15,stim.wav,0,15,3346,1.5790985226987413,1,5.620775582045742
7,19-May-2017,1,15,stim.wav,0,16,3808,2.9514931029953155,1,5.620775582045742
7,19-May-2017,1,15,stim.wav,0,17,4322,-4.099791358445366,1,5.620775582045742
7,19-May-2017,1,15,stim.wav,0,18,4895,-9.13863616061977,1,5.620775582045742
7,19-May-2017,1,15,stim.wav,0,19,5534,7.552670048008815,1,5.620775582045742
7,19-May-2017,1,15,stim.wav,0,20,6245,-4.52871295540206,1,5.620775582045742
7,19-May-2017,1,15,stim.wav,0,21,7037,-2.9512377669754826,1,5.620775582045742
7,19-May-2017,1,15,stim.wav,0,22,7920,2.0452751235048168,1,5.620775582045742
7,19-May-2017,1,15,stim.wav,0,23,8904,3.017947679596376,1,5.620775582045742
7,19-May-2017,1,15,stim.wav,0,24,10000,-3.9893609722152528,1,5.620775582045742
7,19-May-2017,1,15,stim.wav,1,0,100,-1.5386063060949497,0,5.620775582045742
7,19-May-2017,1,15,stim.wav,1,1,191,-3.0856979536076077,0,5.620775582045742
7,19-May-2017,1,15,stim.wav,1,2,293,0.93133505606577,0,5.620775582045742
7,19-May-2017,1,15,stim.wav,1,3,406,4.954725126587917,0,5.620775582045742
7,19-May-2017,1,15,stim.wav,1,4,533,4.944220553556154,0,5.620775582045742
7,19-May-2017,1,15,stim.wav,1,5,673,11.531221416023625,0,5.620775582045742
7,19-May-2017,1,15,stim.wav,1,6,830,2.107627444450064,0,5.620775582045742
7,19-May-2017,1,15,stim.wav,1,7,1004,-3.0692201202013396,0,5.620775582045742
7,19-May-2017,1,15,stim.wav,1,8,1199,1.2442185836465283,0,5.620775582045742
7,19-May-2017,1,15,stim.wav,1,9,1416,-8.329081844547602,0,5.620775582045742
7,19-May-2017,1,15,stim.wav,1,10,1657,5.4161781898175985,0,5.620775582045742
7,19-May-2017,1,15,stim.wav,1,11,1926,-2.4904333618305783,0,5.620775582045742
7,19-May-2017,1,15,stim.wav,1,12,2226,3.827783815258312,0,5.620775582045742
7,19-May-2017,1,15,stim.wav,1,13,2560,-7.142687981601549,0,5.620775582045742
7,19-May-2017,1,15,stim.wav,1,14,2932,3.9183938729891397,0,5.620775582045742
7,19-May-2017,1,15,stim.wav,1,15,3346,-3.732905394264869,0,5.620775582045742
7,19-May-2017,1,15,stim.wav,1,16,3808,9.959896432805678,0,5.620775582045742
7,19-May-2017,1,15,stim.wav,1,17,4322,-4.200449397604331,0,5.620775582045742
7,19-May-2017,1,15,stim.wav,1,18,4895,-4.433234226032163,0,5.620775582045742
7,19-May-2017,1,15,stim.wav,1,19,5534,-1.210542740829033,0,5.620775582045742
7,19-May-2017,1,15,stim.wav,1,20,6245,10.911255880132732,0,5.620775582045742
7,19-May-2017,1,15,stim.wav,1,21,7037,7.614913271278368,0,5.620775582045742
7,19-May-2017,1,15,stim.wav,1,22,7920,-1.0633652520703407,0,5.620775582045742
7,19-May-2017,1,15,stim.wav,1,23,8904,6.267663870424375,0,5.620775582045742
7,19-May-2017,1,15,stim.wav,1,24,10000,-1.5539821295456613,0,5.620775582045742
7,19-May-2017,1,16,stim.wav,0,0,100,0.878477104098224,0,0.7188178967840594
7,19-May-2017,1,16,stim.wav,0,1,191,2.636898269238142,0,0.7188178967840594
7,19-May-2017,1,16,stim.wav,0,2,293,-6.715957923047046,0,0.7188178967840594
7,19-May-2017,1,16,stim.wav,0,3,406,6.125427774638146,0,0.7188178967840594
7,19-May-2017,1,16,stim.wav,0,4,533,-3.724234947153948,0,0.7188178967840594
7,19-May-2017,1,16,stim.wav,0,5,673,-0.5794234580455622,0,0.7188178967840594
7,19-May-2017,1,16,stim.wav,0,6,830,-3.6917874130993944,0,0.7188178967840594
7,19-May-2017,1,16,stim.wav,0,7,1004,-1.162944408456657,0,0.7188178967840594
7,19-May-2017,1,16,stim.wav,0,8,1199,-8.879975582950202,0,0.7188178967840594
7,19-May-2017,1,16,stim.wav,0,9,1416,-5.795309078938761,0,0.7188178967840594
7,19-May-2017,1,16,stim.wav,0,10,1657,-3.0470747230312205,0,0.7188178967840594
7,19-May-2017,1,16,stim.wav,0,11,1926,-1.530781418637512,0,0.7188178967840594
7,19-May-2017,1,16,stim.wav,0,12,2226,-2.9944955213414386,0,0.7188178967840594
7,19-May-2017,1,16,stim.wav,0,13,2560,5.473614967407637,0,0.7188178967840594
7,19-May-2017,1,16,stim.wav,0,14,2932,4.576105050159361,0,0.7188178967840594
7,19-May-2017,1,16,stim.wav,0,15,3346,-3.169589106704198,0,0.7188178967840594
7,19-May-2017,1,16,stim.wav,0,16,3808,5.13694193848893,0,0.7188178967840594
7,19-May-2017,1,16,stim.wav,0,17,4322,-0.2063732099847973,0,0.7188178967840594
7,19-May-2017,1,16,stim.wav,0,18,4895,2.1269506049357716,0,0.7188178967840594
7,19-May-2017,1,16,stim.wav,0,19,5534,2.370963320314859,0,0.7188178967840594
7,19-May-2017,1,16,stim.wav,0,20,6245,-4.778456858580581,0,0.7188178967840594
7,19-May-2017,1,16,stim.wav,0,21,7037,3.728097363452589,0,0.7188178967840594
7,19-May-2017,1,16,stim.wav,0,22,7920,-2.7312118538118,0,0.7188178967840594
7,19-May-2017,1,16,stim.wav,0,23,8904,2.369050348981267,0,0.7188178967840594
7,19-May-2017,1,16,stim.wav,0,24,10000,-4.826736185588234,0,0.7188178967840594
7,19-May-2017,1,16,stim.wav,1,0,100,3.0204886377717717,1,0.7188178967840594
7,19-May-2017,1,16,stim.wav,1,1,191,-4.489765614773052,1,0.7188178967840594
7,19-May-2017,1,16,stim.wav,1,2,293,2.2860581637429487,1,0.7188178967840594
7,19-May-2017,1,16,stim.wav,1,3,406,-11.07525858004086,1,0.7188178967840594
7,19-May-2017,1,16,stim.wav,1,4,533,-2.8443322719350936,1,0.7188178967840594
7,19-May-2017,1,16,stim.wav,1,5,673,-0.3328055445233151,1,0.7188178967840594
7,19-May-2017,1,16,stim.wav,1,6,830,-0.7297990646484885,1,0.7188178967840594
7,19-May-2017,1,16,stim.wav,1,7,1004,-3.2084788864249396,1,0.7188178967840594
7,19-May-2017,1,16,stim.wav,1,8,1199,-2.012159123496677,1,0.7188178967840594
7,19-May-2017,1,16,stim.wav,1,9,1416,1.8345050180280782,1,0.7188178967840594
7,19-May-2017,1,16,stim.wav,1,10,1657,0.12098527256483207,1,0.7188178967840594
7,19-May-2017,1,16,stim.wav,1,11,1926,-0.04452931322623266,1,0.7188178967840594
7,19-May-2017,1,16,stim.wav,1,12,2226,1.3205714982292927,1,0.7188178967840594
7,19-May-2017,1,16,stim.wav,1,13,2560,1.3009608400867567,1,0.7188178967840594
7,19-May-2017,1,16,stim.wav,1,14,2932,-10.80789210621495,1,0.7188178967840594
7,19-May-2017,1,16,stim.wav,1,15,3346,-7.761012171103281,1,0.7188178967840594
7,19-May-2017,1,16,stim.wav,1,16,3808,3.7055149718521347,1,0.7188178967840594
7,19-May-2017,1,16,stim.wav,1,17,4322,-0.7147580752516223,1,0.7188178967840594
7,19-May-2017,1,16,stim.wav,1,18,4895,-2.154579874022396,1,0.7188178967840594
7,19-May-2017,1,16,stim.wav,1,19,5534,0.9460218267912058,1,0.7188178967840594
7,19-May-2017,1,16,stim.wav,1,20,6245,-0.6793242203581122,1,0.7188178967840594
7,19-May-2017,1,16,stim.wav,1,21,7037,-5.540434225929887,1,0.7188178967840594
7,19-May-2017,1,16,stim.wav,1,22,7920,1.7092465153164644,1,0.7188178967840594
7,19-May-2017,1,16,stim.wav,1,23,8904,-0.1067346731207473,1,0.7188178967840594
7,19-May-2017,1,16,stim.wav,1,24,10000,4.267298596347947,1,0.7188178967840594
7,19-May-2017,1,17,stim.wav,0,0,100,10.76873613948865,1,0.9631421489893418
7,19-May-2017,1,17,stim.wav,0,1,191,-8.465438501685611,1,0.9631421489893418
7,19-May-2017,1,17,stim.wav,0,2,293,1.4499000032724962,1,0.9631421489893418
7,19-May-2017,1,17,stim.wav,0,3,406,-1.0619609493918443,1,0.9631421489893418
7,19-May-2017,1,17,stim.wav,0,4,533,-6.63395114903776,1,0.9631421489893418
7,19-May-2017,1,17,stim.wav,0,5,673,5.278217434172819,1,0.9631421489893418
7,19-May-2017,1,17,stim.wav,0,6,830,1.068830873455772,1,0.9631421489893418
7,19-May-2017,1,17,stim.wav,0,7,1004,1.0357698063001535,1,0.9631421489893418
7,19-May-2017,1,17,stim.wav,0,8,1199,-3.5446888515596653,1,0.9631421489893418
7,19-May-2017,1,17,stim.wav,0,9,1416,-3.449842065476542,1,0.9631421489893418
7,19-May-2017,1,17,stim.wav,0,10,1657,-4.433660582097264,1,0.9631421489893418
7,19-May-2017,1,17,stim.wav,0,11,1926,8.696720067355729,1,0.9631421489893418
7,19-May-2017,1,17,stim.wav,0,12,2226,-4.823016037165926,1,0.9631421489893418
7,19-May-2017,1,17,stim.wav,0,13,2560,3.4274422290662576,1,0.9631421489893418
7,19-May-2017,1,17,stim.wav,0,14,2932,-7.374204105764331,1,0.9631421489893418
7,19-May-2017,1,17,stim.wav,0,15,3346,0.7564156659230447,1,0.9631421489893418
7,19-May-2017,1,17,stim.wav,0,16,3808,-0.4076707589341672,1,0.9631421489893418
7,19-May-2017,1,17,stim.wav,0,17,4322,-1.3106075408158606,1,0.9631421489893418
7,19-May-2017,1,17,stim.wav,0,18,4895,-2.115464594589513,1,0.9631421489893418
7,19-May-2017,1,17,stim.wav,0,19,5534,-7.711644502614873,1,0.9631421489893418
7,19-May-2017,1,17,stim.wav,0,20,6245,4.113307274733025,1,0.9631421489893418
7,19-May-2017,1,17,stim.wav,0,21,7037,-5.97270584521773,1,0.9631421489893418
7,19-May-2017,1,17,stim.wav,0,22,7920,-12.115124212940223,1,0.9631421489893418
7,19-May-2017,1,17,stim.wav,0,23,8904,-0.030369599929524538,1,0.9631421489893418
7,19-May-2017,1,17,stim.wav,0,24,10000,1.2592374918545712,1,0.9631421489893418
7,19-May-2017,1,17,stim.wav,1,0,100,3.370499547495405,0,0.9631421489893418
7,19-May-2017,1,17,stim.wav,1,1,191,10.170627330263313,0,0.9631421489893418
7,19-May-2017,1,17,stim.wav,1,2,293,1.0025149821526045,0,0.9631421489893418
7,19-May-2017,1,17,stim.wav,1,3,406,7.104281787514916,0,0.9631421489893418
7,19-May-2017,1,17,stim.wav,1,4,533,5.27582306479305,0,0.9631421489893418
7,19-May-2017,1,17,stim.wav,1,5,673,2.308375557529821,0,0.9631421489893418
7,19-May-2017,1,17,stim.wav,1,6,830,-0.7823422263565931,0,0.9631421489893418
7,19-May-2017,1,17,stim.wav,1,7,1004,-4.612350806823099,0,0.9631421489893418
7,19-May-2017,1,17,stim.wav,1,8,1199,-3.72726220294876,0,0.9631421489893418
7,19-May-2017,1,17,stim.wav,1,9,1416,-0.06664017029476677,0,0.9631421489893418
7,19-May-2017,1,17,stim.wav,1,10,1657,-0.4396070621553397,0,0.9631421489893418
7,19-May-2017,1,17,stim.wav,1,11,1926,-2.787838719122492,0,0.9631421489893418
7,19-May-2017,1,17,stim.wav,1,12,2226,9.76418913619526,0,0.9631421489893418
7,19-May-2017,1,17,stim.wav,1,13,2560,-5.727654871949872,0,0.9631421489893418
7,19-May-2017,1,17,stim.wav,1,14,2932,1.0273691362068977,0,0.9631421489893418
7,19-May-2017,1,17,stim.wav,1,15,3346,-6.163161326952176,0,0.9631421489893418
7,19-May-2017,1,17,stim.wav,1,16,3808,-4.50810610028718,0,0.9631421489893418
7,19-May-2017,1,17,stim.wav,1,17,4322,-9.363016986146768,0,0.9631421489893418
7,19-May-2017,1,17,stim.wav,1,18,4895,-2.6886186529701823,0,0.9631421489893418
7,19-May-2017,1,17,stim.wav,1,19,5534,3.0917332173357033,0,0.9631421489893418
7,19-May-2017,1,17,stim.wav,1,20,6245,-0.1338426193540106,0,0.9631421489893418
7,19-May-2017,1,17,stim.wav,1,21,7037,-2.344940731125827,0,0.9631421489893418
7,19-May-2017,1,17,stim.wav,1,22,7920,-10.197311747234552,0,0.9631421489893418
7,19-May-2017,1,17,stim.wav,1,23,8904,0.8208567465793671,0,0.9631421489893418
7,19-May-2017,1,17,stim.wav,1,24,10000,2.065427701720947,0,0.9631421489893418
7,19-May-2017,1,18,stim.wav,0,0,100,-5.885930987638394,0,3.100709008773235
7,19-May-2017,1,18,stim.wav,0,1,191,0.10484271240960846,0,3.100709008773235
7,19-May-2017,1,18,stim.wav,0,2,293,-0.6634209259184553,0,3.100709008773235
7,19-May-2017,1,18,stim.wav,0,3,406,-1.8952829516371872,0,3.100709008773235
7,19-May-2017,1,18,stim.wav,0,4,533,-2.087644093072792,0,3.100709008773235
7,19-May-2017,1,18,stim.wav,0,5,673,-8.795812137764077,0,3.100709008773235
7,19-May-2017,1,18,stim.wav,0,6,830,4.597727262151682,0,3.100709008773235
7,19-May-2017,1,18,stim.wav,0,7,1004,5.356259792755754,0,3.100709008773235
7,19-May-2017,1,18,stim.wav,0,8,1199,3.8943348219873815,0,3.100709008773235
7,19-May-2017,1,18,stim.wav,0,9,1416,-5.649657870656243,0,3.100709008773235
7,19-May-2017,1,18,stim.wav,0,10,1657,-10.488186797912487,0,3.100709008773235
7,19-May-2017,1,18,stim.wav,0,11,1926,0.5574186571044495,0,3.100709008773235
7,19-May-2017,1,18,stim.wav,0,12,2226,-1.679256267132351,0,3.100709008773235
7,19-May-2017,1,18,stim.wav,0,13,2560,-0.3204837056753145,0,3.100709008773235
7,19-May-2017,1,18,stim.wav,0,14,2932,2.721617866315868,0,3.100709008773235
7,19-May-2017,1,18,stim.wav,0,15,3346,-8.976140479878584,0,3.100709008773235
7,19-May-2017,1,18,stim.wav,0,16,3808,2.3273956918675855,0,3.100709008773235
7,19-May-2017,1,18,stim.wav,0,17,4322,-1.2426263968757243,0,3.100709008773235
7,19-May-2017,1,18,stim.wav,0,18,4895,0.2076669288521167,0,3.100709008773235
7,19-May-2017,1,18,stim.wav,0,19,5534,-0.7727423781319633,0,3.100709008773235
7,19-May-2017,1,18,stim.wav,0,20,6245,5.785886960441013,0,3.100709008773235
7,19-May-2017,1,18,stim.wav,0,21,7037,-2.5954647284302768,0,3.100709008773235
7,19-May-2017,1,18,stim.wav,0,22,7920,1.1474141042205561,0,3.100709008773235
7,19-May-2017,1,18,stim.wav,0,23,8904,-1.3442210623635775,0,3.100709008773235
7,19-May-2017,1,18,stim.wav,0,24,10000,2.2037658574404912,0,3.100709008773235
7,19-May-2017,1,18,stim.wav,1,0,100,4.6398162967477266,1,3.100709008773235
7,19-May-2017,1,18,stim.wav,1,1,191,-3.1803940870964453,1,3.100709008773235
7,19-May-2017,1,18,stim.wav,1,2,293,9.701278277203736,1,3.100709008773235
7,19-May-2017,1,18,stim.wav,1,3,406,3.1547612655132418,1,3.100709008773235
7,19-May-2017,1,18,stim.wav,1,4,533,-2.371697479686498,1,3.100709008773235
7,19-May-2017,1,18,stim.wav,1,5,673,-11.3035856916701,1,3.100709008773235
7,19-May-2017,1,18,stim.wav,1,6,830,-1.731767683305456,1,3.100709008773235
7,19-May-2017,1,18,stim.wav,1,7,1004,4.767853543108516,1,3.100709008773235
7,19-May-2017,1,18,stim.wav,1,8,1199,-5.989960256369122,1,3.100709008773235
7,19-May-2017,1,18,stim.wav,1,9,1416,3.9203212007864745,1,3.100709008773235
7,19-May-2017,1,18,stim.wav,1,10,1657,4.583847575901386,1,3.100709008773235
7,19-May-2017,1,18,stim.wav,1,11,1926,2.415675056640667,1,3.100709008773235
7,19-May-2017,1,18,stim.wav,1,12,2226,6.358139713090933,1,3.100709008773235
7,19-May-2017,1,18,stim.wav,1,13,2560,1.9321357641449974,1,3.100709008773235
7,19-May-2017,1,18,stim.wav,1,14,2932,3.7015843575383838,1,3.100709008773235
7,19-May-2017,1,18,stim.wav,1,15,3346,2.1727786607471105,1,3.100709008773235
7,19-May-2017,1,18,stim.wav,1,16,3808,-3.563223573784059,1,3.100709008773235
7,19-May-2017,1,18,stim.wav,1,17,4322,-5.672926282674073,1,3.100709008773235
7,19-May-2017,1,18,stim.wav,1,18,4895,-1.061332717560885,1,3.100709008773235
7,19-May-2017,1,18,stim.wav,1,19,5534,-3.6810773314703855,1,3.100709008773235
7,19-May-2017,1,18,stim.wav,1,20,6245,-4.956629917169945,1,3.100709008773235
7,19-May-2017,1,18,stim.wav,1,21,7037,6.383295345972787,1,3.100709008773235
7,19-May-2017,1,18,stim.wav,1,22,7920,-5.656634831513763,1,3.100709008773235
7,19-May-2017,1,18,stim.wav,1,23,8904,5.630395545365459,1,3.100709008773235
7,19-May-2017,1,18,stim.wav,1,24,10000,-6.150251511690168,1,3.100709008773235
7,19-May-2017,1,19,stim.wav,0,0,100,1.8795740463062698,1,4.629550185676483
7,19-May-2017,1,19,stim.wav,0,1,191,5.768196888328987,1,4.629550185676483
7,19-May-2017,1,19,stim.wav,0,2,293,-5.010728116696436,1,4.629550185676483
7,19-May-2017,1,19,stim.wav,0,3,406,6.604251676044278,1,4.629550185676483
7,19-May-2017,1,19,stim.wav,0,4,533,-1.1134438045405588,1,4.629550185676483
7,19-May-2017,1,19,stim.wav,0,5,673,7.187258302525522,1,4.629550185676483
7,19-May-2017,1,19,stim.wav,0,6,830,5.340237988445942,1,4.629550185676483
7,19-May-2017,1,19,stim.wav,0,7,1004,-1.1240383598129036,1,4.629550185676483
7,19-May-2017,1,19,stim.wav,0,8,1199,0.9270198395882283,1,4.629550185676483
7,19-May-2017,1,19,stim.wav,0,9,1416,0.07386457531925948,1,4.629550185676483
7,19-May-2017,1,19,stim.wav,0,10,1657,-2.6969595935084016,1,4.629550185676483
7,19-May-2017,1,19,stim.wav,0,11,1926,-0.7580993432997479,1,4.629550185676483
7,19-May-2017,1,19,stim.wav,0,12,2226,2.2654418446016584,1,4.629550185676483
7,19-May-2017,1,19,stim.wav,0,13,2560,-7.297337487098775,1,4.629550185676483
7,19-May-2017,1,19,stim.wav,0,14,2932,-3.7957292151250877,1,4.629550185676483
7,19-May-2017,1,19,stim.wav,0,15,3346,3.2201357677085607,1,4.629550185676483
7,19-May-2017,1,19,stim.wav,0,16,3808,-10.591200713628776,1,4.629550185676483
7,19-May-2017,1,19,stim.wav,0,17,4322,3.2098333962518515,1,4.629550185676483
7,19-May-2017,1,19,stim.wav,0,18,4895,4.129468831659739,1,4.629550185676483
7,19-May-2017,1,19,stim.wav,0,19,5534,-2.612193197052659,1,4.629550185676483
7,19-May-2017,1,19,stim.wav,0,20,6245,2.9372032601539426,1,4.629550185676483
7,19-May-2017,1,19,stim.wav,0,21,7037,-6.249924231723832,1,4.629550185676483
7,19-May-2017,1,19,stim.wav,0,22,7920,7.0390506107794915,1,4.629550185676483
7,19-May-2017,1,19,stim.wav,0,23,8904,-0.01610888808123009,1,4.629550185676483
7,19-May-2017,1,19,stim.wav,0,24,10000,-8.747080722864716,1,4.629550185676483
7,19-May-2017,1,19,stim.wav,1,0,100,5.01134469843023,0,4.629550185676483
7,19-May-2017,1,19,stim.wav,1,1,191,-2.736316161028645,0,4.629550185676483
7,19-May-2017,1,19,stim.wav,1,2,293,-2.1062300198854187,0,4.629550185676483
7,19-May-2017,1,19,stim.wav,1,3,406,-3.7492642837007133,0,4.629550185676483
7,19-May-2017,1,19,stim.wav,1,4,533,0.2559240905208806,0,4.629550185676483
7,19-May-2017,1,19,stim.wav,1,5,673,5.1850610004030155,0,4.629550185676483
7,19-May-2017,1,19,stim.wav,1,6,830,-3.6533779665870525,0,4.629550185676483
7,19-May-2017,1,19,stim.wav,1,7,1004,-0.4844066891641772,0,4.629550185676483
7,19-May-2017,1,19,stim.wav,1,8,1199,1.1835095476377036,0,4.629550185676483
7,19-May-2017,1,19,stim.wav,1,9,1416,2.5875059837135743,0,4.629550185676483
7,19-May-2017,1,19,stim.wav,1,10,1657,-0.6492497176232116,0,4.629550185676483
7,19-May-2017,1,19,stim.wav,1,11,1926,-0.12773613276107337,0,4.629550185676483
7,19-May-2017,1,19,stim.wav,1,12,2226,-0.7998111483528663,0,4.629550185676483
7,19-May-2017,1,19,stim.wav,1,13,2560,1.2415016523920048,0,4.629550185676483
7,19-May-2017,1,19,stim.wav,1,14,2932,2.815915943393933,0,4.629550185676483
7,19-May-2017,1,19,stim.wav,1,15,3346,3.228758007017401,0,4.629550185676483
7,19-May-2017,1,19,stim.wav,1,16,3808,-4.736222349116829,0,4.629550185676483
7,19-May-2017,1,19,stim.wav,1,17,4322,2.5822105436686362,0,4.629550185676483
7,19-May-2017,1,19,stim.wav,1,18,4895,8.884190972796883,0,4.629550185676483
7,19-May-2017,1,19,stim.wav,1,19,5534,0.5415936094060746,0,4.629550185676483
7,19-May-2017,1,19,stim.wav,1,20,6245,0.3685480572706653,0,4.629550185676483
7,19-May-2017,1,19,stim.wav,1,21,7037,4.845710976998873,0,4.629550185676483
7,19-May-2017,1,19,stim.wav,1,22,7920,-2.9672195140517275,0,4.629550185676483
7,19-May-2017,1,19,stim.wav,1,23,8904,-0.4517771499414873,0,4.629550185676483
7,19-May-2017,1,19,stim.wav,1,24,10000,4.464086229859664,0,4.629550185676483
7,19-May-2017,1,20,stim.wav,0,0,100,-6.280795527039603,1,4.4134402063566185
7,19-May-2017,1,20,stim.wav,0,1,191,1.7509388275760462,1,4.4134402063566185
7,19-May-2017,1,20,stim.wav,0,2,293,1.9092173953693532,1,4.4134402063566185
7,19-May-2017,1,20,stim.wav,0,3,406,-0.4647334088363475,1,4.4134402063566185
7,19-May-2017,1,20,stim.wav,0,4,533,1.816548238588642,1,4.4134402063566185
7,19-May-2017,1,20,stim.wav,0,5,673,3.24490148338405,1,4.4134402063566185
7,19-May-2017,1,20,stim.wav,0,6,830,11.671351363662698,1,4.4134402063566185
7,19-May-2017,1,20,stim.wav,0,7,1004,-0.6190714321378864,1,4.4134402063566185
7,19-May-2017,1,20,stim.wav,0,8,1199,0.5565151726287041,1,4.4134402063566185
7,19-May-2017,1,20,stim.wav,0,9,1416,-9.223566712521233,1,4.4134402063566185
7,19-May-2017,1,20,stim.wav,0,10,1657,3.6719301699919846,1,4.4134402063566185
7,19-May-2017,1,20,stim.wav,0,11,1926,-0.7045611655456047,1,4.4134402063566185
7,19-May-2017,1,20,stim.wav,0,12,2226,-7.9138320341169095,1,4.4134402063566185
7,19-May-2017,1,20,stim.wav,0,13,2560,-7.844135602112617,1,4.4134402063566185
7,19-May-2017,1,20,stim.wav,0,14,2932,3.3545378007186315,1,4.4134402063566185
7,19-May-2017,1,20,stim.wav,0,15,3346,5.244290436373097,1,4.4134402063566185
7,19-May-2017,1,20,stim.wav,0,16,3808,0.536280856691723,1,4.4134402063566185
7,19-May-2017,1,20,stim.wav,0,17,4322,9.667647188201537,1,4.4134402063566185
7,19-May-2017,1,20,stim.wav,0,18,4895,1.327977631874676,1,4.4134402063566185
7,19-May-2017,1,20,stim.wav,0,19,5534,-2.3587207664667416,1,4.4134402063566185
7,19-May-2017,1,20,stim.wav,0,20,6245,-1.0116533644251877,1,4.4134402063566185
7,19-May-2017,1,20,stim.wav,0,21,7037,-1.064068920141847,1,4.4134402063566185
7,19-May-2017,1,20,stim.wav,0,22,7920,-3.0224632277949133,1,4.4134402063566185
7,19-May-2017,1,20,stim.wav,0,23,8904,0.22422635852875522,1,4.4134402063566185
7,19-May-2017,1,20,stim.wav,0,24,10000,6.99221791018064,1,4.4134402063566185
7,19-May-2017,1,20,stim.wav,1,0,100,2.599238964026722,0,4.4134402063566185
7,19-May-2017,1,20,stim.wav,1,1,191,3.4043773651572735,0,4.4134402063566185
7,19-May-2017,1,20,stim.wav,1,2,293,1.3703956977850087,0,4.4134402063566185
7,19-May-2017,1,20,stim.wav,1,3,406,2.8575698003140273,0,4.4134402063566185
7,19-May-2017,1,20,stim.wav,1,4,533,2.2786472280353114,0,4.4134402063566185
7,19-May-2017,1,20,stim.wav,1,5,673,-0.09833579971996188,0,4.4134402063566185
7,19-May-2017,1,20,stim.wav,1,6,830,-0.14971943490643938,0,4.4134402063566185
7,19-May-2017,1,20,stim.wav,1,7,1004,-2.3401611933707,0,4.4134402063566185
7,19-May-2017,1,20,stim.wav,1,8,1199,-7.289743986525041,0,4.4134402063566185
7,19-May-2017,1,20,stim.wav,1,9,1416,-3.311874822280849,0,4.4134402063566185
7,19-May-2017,1,20,stim.wav,1,10,1657,-6.991258305843926,0,4.4134402063566185
7,19-May-2017,1,20,stim.wav,1,11,1926,-2.980168296297798,0,4.4134402063566185
7,19-May-2017,1,20,stim.wav,1,12,2226,-3.680031543919704,0,4.4134402063566185
7,19-May-2017,1,20,stim.wav,1,13,2560,2.5252733960027522,0,4.4134402063566185
7,19-May-2017,1,20,stim.wav,1,14,2932,-0.13864102190821595,0,4.4134402063566185
7,19-May-2017,1,20,stim.wav,1,15,3346,5.0800507972780675,0,4.4134402063566185
7,19-May-2017,1,20,stim.wav,1,16,3808,6.407213077354559,0,4.4134402063566185
7,19-May-2017,1,20,stim.wav,1,17,4322,-5.946978555887757,0,4.4134402063566185
7,19-May-2017,1,20,stim.wav,1,18,4895,-1.4401681461129772,0,4.4134402063566185
7,19-May-2017,1,20,stim.wav,1,19,5534,-7.635251928935856,0,4.4134402063566185
7,19-May-2017,1,20,stim.wav,1,20,6245,-6.376858481851437,0,4.4134402063566185
7,19-May-2017,1,20,stim.wav,1,21,7037,-4.845063686633417,0,4.4134402063566185
7,19-May-2017,1,20,stim.wav,1,22,7920,4.941221425132738,0,4.4134402063566185
7,19-May-2017,1,20,stim.wav,1,23,8904,-6.889943773325515,0,4.4134402063566185
7,19-May-2017,1,20,stim.wav,1,24,10000,1.171006152388107,0,4.4134402063566185
7,19-May-2017,1,21,stim.wav,0,0,100,-1.1121375987843605,1,0.9402051592575678
7,19-May-2017,1,21,stim.wav,0,1,191,-1.0888350236232063,1,0.9402051592575678
7,19-May-2017,1,21,stim.wav,0,2,293,-2.7305489267199046,1,0.9402051592575678
7,19-May-2017,1,21,stim.wav,0,3,406,-1.7848662765971137,1,0.9402051592575678
7,19-May-2017,1,21,stim.wav,0,4,533,5.065086412658799,1,0.9402051592575678
7,19-May-2017,1,21,stim.wav,0,5,673,-1.9236237307990967,1,0.9402051592575678
7,19-May-2017,1,21,stim.wav,0,6,830,1.6080501770307767,1,0.9402051592575678
7,19-May-2017,1,21,stim.wav,0,7,1004,0.9476009576322995,1,0.9402051592575678
7,19-May-2017,1,21,stim.wav,0,8,1199,8.235780455993284,1,0.9402051592575678
7,19-May-2017,1,21,stim.wav,0,9,1416,-0.1520458111785093,1,0.9402051592575678
7,19-May-2017,1,21,stim.wav,0,10,1657,-0.2015386746576656,1,0.9402051592575678
7,19-May-2017,1,21,stim.wav,0,11,1926,-1.5826299644934216,1,0.9402051592575678
7,19-May-2017,1,21,stim.wav,0,12,2226,2.425538172918146,1,0.9402051592575678
7,19-May-2017,1,21,stim.wav,0,13,2560,-5.414867894229322,1,0.9402051592575678
7,19-May-2017,1,21,stim.wav,0,14,2932,5.272690144087714,1,0.9402051592575678
7,19-May-2017,1,21,stim.wav,0,15,3346,-1.2409512122898665,1,0.9402051592575678
7,19-May-2017,1,21,stim.wav,0,16,3808,5.180227949132252,1,0.9402051592575678
7,19-May-2017,1,21,stim.wav,0,17,4322,1.5559572415626757,1,0.9402051592575678
7,19-May-2017,1,21,stim.wav,0,18,4895,-3.3484941664929946,1,0.9402051592575678
7,19-May-2017,1,21,stim.wav,0,19,5534,6.700746917276864,1,0.9402051592575678
7,19-May-2017,1,21,stim.wav,0,20,6245,4.1628176089926585,1,0.9402051592575678
7,19-May-2017,1,21,stim.wav,0,21,7037,6.696572010573904,1,0.9402051592575678
7,19-May-2017,1,21,stim.wav,0,22,7920,2.561624750091009,1,0.9402051592575678
7,19-May-2017,1,21,stim.wav,0,23,8904,-1.1135926658150865,1,0.9402051592575678
7,19-May-2017,1,21,stim.wav,0,24,10000,9.530624404009593,1,0.9402051592575678
7,19-May-2017,1,21,stim.wav,1,0,100,5.507513837848686,0,0.9402051592575678
7,19-May-2017,1,21,stim.wav,1,1,191,-12.024800862792258,0,0.9402051592575678
7,19-May-2017,1,21,stim.wav,1,2,293,-4.644397603280144,0,0.9402051592575678
7,19-May-2017,1,21,stim.wav,1,3,406,9.503954087683287,0,0.9402051592575678
7,19-May-2017,1,21,stim.wav,1,4,533,4.7083748640888405,0,0.9402051592575678
7,19-May-2017,1,21,stim.wav,1,5,673,-2.08614845605973,0,0.9402051592575678
7,19-May-2017,1,21,stim.wav,1,6,830,-4.63391499854314,0,0.9402051592575678
7,19-May-2017,1,21,stim.wav,1,7,1004,6.249770714118602,0,0.9402051592575678
7,19-May-2017,1,21,stim.wav,1,8,1199,0.5114191263134792,0,0.9402051592575678
7,19-May-2017,1,21,stim.wav,1,9,1416,-8.254510314986046,0,0.9402051592575678
7,19-May-2017,1,21,stim.wav,1,10,1657,-0.1792536493570758,0,0.9402051592575678
7,19-May-2017,1,21,stim.wav,1,11,1926,-8.50303718090636,0,0.9402051592575678
7,19-May-2017,1,21,stim.wav,1,12,2226,5.656852296134719,0,0.9402051592575678
7,19-May-2017,1,21,stim.wav,1,13,2560,-4.2243853088025665,0,0.9402051592575678
7,19-May-2017,1,21,stim.wav,1,14,2932,-3.8881430883606916,0,0.9402051592575678
7,19-May-2017,1,21,stim.wav,1,15,3346,-2.7203508239530794,0,0.9402051592575678
7,19-May-2017,1,21,stim.wav,1,16,3808,2.607261179171906,0,0.9402051592575678
7,19-May-2017,1,21,stim.wav,1,17,4322,-5.531913034109253,0,0.9402051592575678
7,19-May-2017,1,21,stim.wav,1,18,4895,1.266281939840761,0,0.9402051592575678
7,19-May-2017,1,21,stim.wav,1,19,5534,-8.38772411103132,0,0.9402051592575678
7,19-May-2017,1,21,stim.wav,1,20,6245,-7.55797430290161,0,0.9402051592575678
7,19-May-2017,1,21,stim.wav,1,21,7037,7.393314556137517,0,0.9402051592575678
7,19-May-2017,1,21,stim.wav,1,22,7920,2.4571049618388088,0,0.9402051592575678
7,19-May-2017,1,21,stim.wav,1,23,8904,2.9797411350152774,0,0.9402051592575678
7,19-May-2017,1,21,stim.wav,1,24,10000,8.269272770986868,0,0.9402051592575678
7,19-May-2017,1,22,stim.wav,0,0,100,-9.578301569381576,0,0.7088295111859176
7,19-May-2017,1,22,stim.wav,0,1,191,3.808887441618141,0,0.7088295111859176
7,19-May-2017,1,22,stim.wav,0,2,293,-2.6661491194631175,0,0.7088295111859176
7,19-May-2017,1,22,stim.wav,0,3,406,-0.03875478132527295,0,0.7088295111859176
7,19-May-2017,1,22,stim.wav,0,4,533,7.085664084714986,0,0.7088295111859176
7,19-May-2017,1,22,stim.wav,0,5,673,3.6417831229096653,0,0.7088295111859176
7,19-May-2017,1,22,stim.wav,0,6,830,10.137963849443679,0,0.7088295111859176
7,19-May-2017,1,22,stim.wav,0,7,1004,3.0268126499957138,0,0.7088295111859176
7,19-May-2017,1,22,stim.wav,0,8,1199,-1.4681558970499644,0,0.7088295111859176
7,19-May-2017,1,22,stim.wav,0,9,1416,-0.7730448802625999,0,0.7088295111859176
7,19-May-2017,1,22,stim.wav,0,10,1657,-4.7410227511301,0,0.7088295111859176
7,19-May-2017,1,22,stim.wav,0,11,1926,8.182515224576514,0,0.7088295111859176
7,19-May-2017,1,22,stim.wav,0,12,2226,-5.728844542696697,0,0.7088295111859176
7,19-May-2017,1,22,stim.wav,0,13,2560,0.45727769824328307,0,0.7088295111859176
7,19-May-2017,1,22,stim.wav,0,14,2932,3.44000459982124,0,0.7088295111859176
7,19-May-2017,1,22,stim.wav,0,15,3346,-2.3137046271340562,0,0.7088295111859176
7,19-May-2017,1,22,stim.wav,0,16,3808,-5.008988554240366,0,0.7088295111859176
7,19-May-2017,1,22,stim.wav,0,17,4322,-1.248984344693111,0,0.7088295111859176
7,19-May-2017,1,22,stim.wav,0,18,4895,2.179923517262335,0,0.7088295111859176
7,19-May-2017,1,22,stim.wav,0,19,5534,-5.557453470230358,0,0.7088295111859176
7,19-May-2017,1,22,stim.wav,0,20,6245,-5.125688318523128,0,0.7088295111859176
7,19-May-2017,1,22,stim.wav,0,21,7037,-8.868353269091097,0,0.7088295111859176
7,19-May-2017,1,22,stim.wav,0,22,7920,1.9984092315687967,0,0.7088295111859176
7,19-May-2017,1,22,stim.wav,0,23,8904,-4.799409189644612,0,0.7088295111859176
7,19-May-2017,1,22,stim.wav,0,24,10000,-3.3217927750410308,0,0.7088295111859176
7,19-May-2017,1,22,stim.wav,1,0,100,-3.326045744650642,1,0.7088295111859176
7,19-May-2017,1,22,stim.wav,1,1,191,-1.08644068730399,1,0.7088295111859176
7,19-May-2017,1,22,stim.wav,1,2,293,-7.86631378184807,1,0.7088295111859176
7,19-May-2017,1,22,stim.wav,1,3,406,3.5040257551183784,1,0.7088295111859176
7,19-May-2017,1,22,stim.wav,1,4,533,5.317896544144874,1,0.7088295111859176
7,19-May-2017,1,22,stim.wav,1,5,673,-4.892549120369123,1,0.7088295111859176
7,19-May-2017,1,22,stim.wav,1,6,830,-6.47847487864318,1,0.7088295111859176
7,19-May-2017,1,22,stim.wav,1,7,1004,6.14997039899733,1,0.7088295111859176
7,19-May-2017,1,22,stim.wav,1,8,1199,-1.5096797080125777,1,0.7088295111859176
7,19-May-2017,1,22,stim.wav,1,9,1416,2.8438064290732235,1,0.7088295111859176
7,19-May-2017,1,22,stim.wav,1,10,1657,-1.9796719209596572,1,0.7088295111859176
7,19-May-2017,1,22,stim.wav,1,11,1926,6.752930663694263,1,0.7088295111859176
7,19-May-2017,1,22,stim.wav,1,12,2226,-5.651422921747413,1,0.7088295111859176
7,19-May-2017,1,22,stim.wav,1,13,2560,2.799188656222231,1,0.7088295111859176
7,19-May-2017,1,22,stim.wav,1,14,2932,-1.8996617840683296,1,0.7088295111859176
7,19-May-2017,1,22,stim.wav,1,15,3346,-1.7271564674074849,1,0.7088295111859176
7,19-May-2017,1,22,stim.wav,1,16,3808,-1.8941514176479866,1,0.7088295111859176
7,19-May-2017,1,22,stim.wav,1,17,4322,-5.648216386694509,1,0.7088295111859176
7,19-May-2017,1,22,stim.wav,1,18,4895,9.656095418800136,1,0.7088295111859176
7,19-May-2017,1,22,stim.wav,1,19,5534,0.9697572349374951,1,0.7088295111859176
7,19-May-2017,1,22,stim.wav,1,20,6245,8.526860670181744,1,0.7088295111859176
7,19-May-2017,1,22,stim.wav,1,21,7037,6.425712532622025,1,0.7088295111859176
7,19-May-2017,1,22,stim.wav,1,22,7920,9.203091412100102,1,0.7088295111859176
7,19-May-2017,1,22,stim.wav,1,23,8904,-3.0304141728865917,1,0.7088295111859176
7,19-May-2017,1,22,stim.wav,1,24,10000,3.5525438869005437,1,0.7088295111859176
7,19-May-2017,1,23,stim.wav,0,0,100,-1.906249646982761,1,1.1894858018641201
7,19-May-2017,1,23,stim.wav,0,1,191,2.6401058284307104,1,1.1894858018641201
7,19-May-2017,1,23,stim.wav,0,2,293,-6.468832154223487,1,1.1894858018641201
7,19-May-2017,1,23,stim.wav,0,3,406,-4.529720081279408,1,1.1894858018641201
7,19-May-2017,1,23,stim.wav,0,4,533,4.903377796307597,1,1.1894858018641201
7,19-May-2017,1,23,stim.wav,0,5,673,-6.7163356288133365,1,1.1894858018641201
7,19-May-2017,1,23,stim.wav,0,6,830,0.39821947010788866,1,1.1894858018641201
7,19-May-2017,1,23,stim.wav,0,7,1004,1.9299829292217292,1,1.1894858018641201
7,19-May-2017,1,23,stim.wav,0,8,1199,7.92142733332621,1,1.1894858018641201
7,19-May-2017,1,23,stim.wav,0,9,1416,-6.602005394251483,1,1.1894858018641201
7,19-May-2017,1,23,stim.wav,0,10,1657,-0.5418323499513384,1,1.1894858018641201
7,19-May-2017,1,23,stim.wav,0,11,1926,8.366877511083214,1,1.1894858018641201
7,19-May-2017,1,23,stim.wav,0,12,2226,-2.225982214466293,1,1.1894858018641201
7,19-May-2017,1,23,stim.wav,0,13,2560,1.0639333843522099,1,1.1894858018641201
7,19-May-2017,1,23,stim.wav,0,14,2932,-1.4604483284755525,1,1.1894858018641201
7,19-May-2017,1,23,stim.wav,0,15,3346,-0.35889638550461817,1,1.1894858018641201
7,19-May-2017,1,23,stim.wav,0,16,3808,2.295802124804873,1,1.1894858018641201
7,19-May-2017,1,23,stim.wav,0,17,4322,-3.8647576959110017,1,1.1894858018641201
7,19-May-2017,1,23,stim.wav,0,18,4895,7.734356655653154,1,1.1894858018641201
7,19-May-2017,1,23,stim.wav,0,19,5534,3.652376530318514,1,1.1894858018641201
7,19-May-2017,1,23,stim.wav,0,20,6245,0.9028704139863555,1,1.1894858018641201
7,19-May-2017,1,23,stim.wav,0,21,7037,-5.9631735805957975,1,1.1894858018641201
7,19-May-2017,1,23,stim.wav,0,22,7920,0.9909593123692138,1,1.1894858018641201
7,19-May-2017,1,23,stim.wav,0,23,8904,6.417500733786242,1,1.1894858018641201
7,19-May-2017,1,23,stim.wav,0,24,10000,-2.219946199865293,1,1.1894858018641201
7,19-May-2017,1,23,stim.wav,1,0,100,5.134501586829749,0,1.1894858018641201
7,19-May-2017,1,23,stim.wav,1,1,191,-1.0086265853128769,0,1.1894858018641201
7,19-May-2017,1,23,stim.wav,1,2,293,4.340103056419,0,1.1894858018641201
7,19-May-2017,1,23,stim.wav,1,3,406,-5.4923146120009845,0,1.1894858018641201
7,19-May-2017,1,23,stim.wav,1,4,533,6.706717006013957,0,1.1894858018641201
7,19-May-2017,1,23,stim.wav,1,5,673,2.6793061953798176,0,1.1894858018641201
7,19-May-2017,1,23,stim.wav,1,6,830,0.36448563182469834,0,1.1894858018641201
7,19-May-2017,1,23,stim.wav,1,7,1004,-5.594587049832724,0,1.1894858018641201
7,19-May-2017,1,23,stim.wav,1,8,1199,-5.185641287260731,0,1.1894858018641201
7,19-May-2017,1,23,stim.wav,1,9,1416,-4.002779441443858,0,1.1894858018641201
7,19-May-2017,1,23,stim.wav,1,10,1657,1.886412505290728,0,1.1894858018641201
7,19-May-2017,1,23,stim.wav,1,11,1926,0.9082260304981793,0,1.1894858018641201
7,19-May-2017,1,23,stim.wav,1,12,2226,-1.5413255695583903,0,1.1894858018641201
7,19-May-2017,1,23,stim.wav,1,13,2560,-5.745765286931062,0,1.1894858018641201
7,19-May-2017,1,23,stim.wav,1,14,2932,1.379546686156599,0,1.1894858018641201
7,19-May-2017,1,23,stim.wav,1,15,3346,-2.9506198906769763,0,1.1894858018641201
7,19-May-2017,1,23,stim.wav,1,16,3808,-7.149223619366971,0,1.1894858018641201
7,19-May-2017,1,23,stim.wav,1,17,4322,-4.423140806898908,0,1.1894858018641201
7,19-May-2017,1,23,stim.wav,1,18,4895,4.605343737634376,0,1.1894858018641201
7,19-May-2017,1,23,stim.wav,1,19,5534,-6.714534992023637,0,1.1894858018641201
7,19-May-2017,1,23,stim.wav,1,20,6245,-0.3050361351217809,0,1.1894858018641201
7,19-May-2017,1,23,stim.wav,1,21,7037,3.792345772832526,0,1.1894858018641201
7,19-May-2017,1,23,stim.wav,1,22,7920,5.487182536337091,0,1.1894858018641201
7,19-May-2017,1,23,stim.wav,1,23,8904,-1.9684140542567652,0,1.1894858018641201
7,19-May-2017,1,23,stim.wav,1,24,10000,3.986995108798505,0,1.1894858018641201
7,19-May-2017,1,24,stim.wav,0,0,100,4.71233384967069,1,1.0685177867978974
7,19-May-2017,1,24,stim.wav,0,1,191,7.323256132975441,1,1.0685177867978974
7,19-May-2017,1,24,stim.wav,0,2,293,2.907213693117226,1,1.0685177867978974
7,19-May-2017,1,24,stim.wav,0,3,406,8.134292866048687,1,1.0685177867978974
7,19-May-2017,1,24,stim.wav,0,4,533,3.1656692259214148,1,1.0685177867978974
7,19-May-2017,1,24,stim.wav,0,5,673,6.969266589527373,1,1.0685177867978974
7,19-May-2017,1,24,stim.wav,0,6,830,0.3331319491121796,1,1.0685177867978974
7,19-May-2017,1,24,stim.wav,0,7,1004,0.7528005144075371,1,1.0685177867978974
7,19-May-2017,1,24,stim.wav,0,8,1199,-3.169801254076451,1,1.0685177867978974
7,19-May-2017,1,24,stim.wav,0,9,1416,4.623406918873786,1,1.0685177867978974
7,19-May-2017,1,24,stim.wav,0,10,1657,2.5119038884743277,1,1.0685177867978974
7,19-May-2017,1,24,stim.wav,0,11,1926,0.9250874784585004,1,1.0685177867978974
7,19-May-2017,1,24,stim.wav,0,12,2226,-2.640465771421437,1,1.0685177867978974
7,19-May-2017,1,24,stim.wav,0,13,2560,4.924955195891792,1,1.0685177867978974
7,19-May-2017,1,24,stim.wav,0,14,2932,11.91288930435994,1,1.0685177867978974
7,19-May-2017,1,24,stim.wav,0,15,3346,0.30683998234037047,1,1.0685177867978974
7,19-May-2017,1,24,stim.wav,0,16,3808,-1.6752855372847961,1,1.0685177867978974
7,19-May-2017,1,24,stim.wav,0,17,4322,-3.5233439835434877,1,1.0685177867978974
7,19-May-2017,1,24,stim.wav,0,18,4895,-6.026829658469185,1,1.0685177867978974
7,19-May-2017,1,24,stim.wav,0,19,5534,1.0675533228381124,1,1.0685177867978974
7,19-May-2017,1,24,stim.wav,0,20,6245,2.8042530465924647,1,1.0685177867978974
7,19-May-2017,1,24,stim.wav,0,21,7037,1.2274258237557478,1,1.0685177867978974
7,19-May-2017,1,24,stim.wav,0,22,7920,-3.5350031243289832,1,1.0685177867978974
7,19-May-2017,1,24,stim.wav,0,23,8904,0.6520265726729412,1,1.0685177867978974
7,19-May-2017,1,24,stim.wav,0,24,10000,-0.5129770226645153,1,1.0685177867978974
7,19-May-2017,1,24,stim.wav,1,0,100,5.433202738282232,0,1.0685177867978974
7,19-May-2017,1,24,stim.wav,1,1,191,8.90125562542871,0,1.0685177867978974
7,19-May-2017,1,24,stim.wav,1,2,293,3.2990732840227737,0,1.0685177867978974
7,19-May-2017,1,24,stim.wav,1,3,406,-3.358966000040237,0,1.0685177867978974
7,19-May-2017,1,24,stim.wav,1,4,533,0.9631982338036662,0,1.0685177867978974
7,19-May-2017,1,24,stim.wav,1,5,673,-6.829111844479482,0,1.0685177867978974
7,19-May-2017,1,24,stim.wav,1,6,830,6.466601027432319,0,1.0685177867978974
7,19-May-2017,1,24,stim.wav,1,7,1004,-6.615933239313906,0,1.0685177867978974
7,19-May-2017,1,24,stim.wav,1,8,1199,9.884861699252902,0,1.0685177867978974
7,19-May-2017,1,24,stim.wav,1,9,1416,4.6849333451672095,0,1.0685177867978974
7,19-May-2017,1,24,stim.wav,1,10,1657,0.2962320129164402,0,1.0685177867978974
7,19-May-2017,1,24,stim.wav,1,11,1926,6.032776560726716,0,1.0685177867978974
7,19-May-2017,1,24,stim.wav,1,12,2226,-3.8588790864492957,0,1.0685177867978974
7,19-May-2017,1,24,stim.wav,1,13,2560,1.2301290354609464,0,1.0685177867978974
7,19-May-2017,1,24,stim.wav,1,14,2932,0.5176486447403271,0,1.0685177867978974
7,19-May-2017,1,24,stim.wav,1,15,3346,-1.1990216146146762,0,1.0685177867978974
7,19-May-2017,1,24,stim.wav,1,16,3808,-3.3235513955735083,0,1.0685177867978974
7,19-May-2017,1,24,stim.wav,1,17,4322,2.3081573529547295,0,1.0685177867978974
7,19-May-2017,1,24,stim.wav,1,18,4895,-2.6834049220778566,0,1.0685177867978974
7,19-May-2017,1,24,stim.wav,1,19,5534,4.6314480448143565,0,1.0685177867978974
7,19-May-2017,1,24,stim.wav,1,20,6245,3.5083709697800156,0,1.0685177867978974
7,19-May-2017,1,24,stim.wav,1,21,7037,0.46055672149103033,0,1.0685177867978974
7,19-May-2017,1,24,stim.wav,1,22,7920,-9.823997446885757,0,1.0685177867978974
7,19-May-2017,1,24,stim.wav,1,23,8904,1.4528069637120185,0,1.0685177867978974
7,19-May-2017,1,24,stim.wav,1,24,10000,-2.738301982541964,0,1.0685177867978974
7,19-May-2017,1,25,stim.wav,0,0,100,1.5284452657746594,0,0.6688140481236498
7,19-May-2017,1,25,stim.wav,0,1,191,5.109361550117266,0,0.6688140481236498
7,19-May-2017,1,25,stim.wav,0,2,293,2.5700721371861746,0,0.6688140481236498
7,19-May-2017,1,25,stim.wav,0,3,406,0.3424858651174706,0,0.6688140481236498
7,19-May-2017,1,25,stim.wav,0,4,533,11.180322348531053,0,0.6688140481236498
7,19-May-2017,1,25,stim.wav,0,5,673,0.6700258260937635,0,0.6688140481236498
7,19-May-2017,1,25,stim.wav,0,6,830,-4.753018829959788,0,0.6688140481236498
7,19-May-2017,1,25,stim.wav,0,7,1004,-7.542884259965411,0,0.6688140481236498
7,19-May-2017,1,25,stim.wav,0,8,1199,-1.5263201580311625,0,0.6688140481236498
7,19-May-2017,1,25,stim.wav,0,9,1416,4.028102661113729,0,0.6688140481236498
7,19-May-2017,1,25,stim.wav,0,10,1657,-3.5518768935652565,0,0.6688140481236498
7,19-May-2017,1,25,stim.wav,0,11,1926,-6.873555401690128,0,0.6688140481236498
7,19-May-2017,1,25,stim.wav,0,12,2226,3.172897267299465,0,0.6688140481236498
7,19-May-2017,1,25,stim.wav,0,13,2560,5.173676080662538,0,0.6688140481236498
7,19-May-2017,1,25,stim.wav,0,14,2932,-4.746081098275593,0,0.6688140481236498
7,19-May-2017,1,25,stim.wav,0,15,3346,3.264441761950601,0,0.6688140481236498
7,19-May-2017,1,25,stim.wav,0,16,3808,-5.190343517140137,0,0.6688140481236498
7,19-May-2017,1,25,stim.wav,0,17,4322,0.8623363385711669,0,0.6688140481236498
7,19-May-2017,1,25,stim.wav,0,18,4895,-5.951366234630829,0,0.6688140481236498
7,19-May-2017,1,25,stim.wav,0,19,5534,-1.0972281984788474,0,0.6688140481236498
7,19-May-2017,1,25,stim.wav,0,20,6245,2.74779177074692,0,0.6688140481236498
7,19-May-2017,1,25,stim.wav,0,21,7037,-1.0640318900855616,0,0.6688140481236498
7,19-May-2017,1,25,stim.wav,0,22,7920,1.2213697854995014,0,0.6688140481236498
7,19-May-2017,1,25,stim.wav,0,23,8904,-2.2115640914379693,0,0.6688140481236498
7,19-May-2017,1,25,stim.wav,0,24,10000,1.7340217495901047,0,0.6688140481236498
7,19-May-2017,1,25,stim.wav,1,0,100,2.280400192755678,1,0.6688140481236498
7,19-May-2017,1,25,stim.wav,1,1,191,4.349645238849055,1,0.6688140481236498
7,19-May-2017,1,25,stim.wav,1,2,293,0.6365043335132134,1,0.6688140481236498
7,19-May-2017,1,25,stim.wav,1,3,406,-11.15670653828799,1,0.6688140481236498
7,19-May-2017,1,25,stim.wav,1,4,533,-6.436652642985919,1,0.6688140481236498
7,19-May-2017,1,25,stim.wav,1,5,673,-3.667039029116066,1,0.6688140481236498
7,19-May-2017,1,25,stim.wav,1,6,830,-6.664743702662062,1,0.6688140481236498
7,19-May-2017,1,25,stim.wav,1,7,1004,-1.3673935337448906,1,0.6688140481236498
7,19-May-2017,1,25,stim.wav,1,8,1199,0.1654365710704419,1,0.6688140481236498
7,19-May-2017,1,25,stim.wav,1,9,1416,0.2694216547165191,1,0.6688140481236498
7,19-May-2017,1,25,stim.wav,1,10,1657,-5.175830355735681,1,0.6688140481236498
7,19-May-2017,1,25,stim.wav,1,11,1926,-7.973573058413215,1,0.6688140481236498
7,19-May-2017,1,25,stim.wav,1,12,2226,-7.503683279491316,1,0.6688140481236498
7,19-May-2017,1,25,stim.wav,1,13,2560,-4.07328967117913,1,0.6688140481236498
7,19-May-2017,1,25,stim.wav,1,14,2932,-10.435135646907874,1,0.6688140481236498
7,19-May-2017,1,25,stim.wav,1,15,3346,-1.3138506746094991,1,0.6688140481236498
7,19-May-2017,1,25,stim.wav,1,16,3808,4.265119332876276,1,0.6688140481236498
7,19-May-2017,1,25,stim.wav,1,17,4322,0.9409168720060662,1,0.6688140481236498
7,19-May-2017,1,25,stim.wav,1,18,4895,-5.373702977425746,1,0.6688140481236498
7,19-May-2017,1,25,stim.wav,1,19,5534,1.6451896064037639,1,0.6688140481236498
7,19-May-2017,1,25,stim.wav,1,20,6245,4.220948597677163,1,0.6688140481236498
7,19-May-2017,1,25,stim.wav,1,21,7037,-3.4814842563755715,1,0.6688140481236498
7,19-May-2017,1,25,stim.wav,1,22,7920,-1.9733815381723399,1,0.6688140481236498
7,19-May-2017,1,25,stim.wav,1,23,8904,-1.1502487553746494,1,0.6688140481236498
7,19-May-2017,1,25,stim.wav,1,24,10000,3.321524251091297,1,0.6688140481236498
7,19-May-2017,1,26,stim.wav,0,0,100,-6.528972622862447,1,1.0849555009330862
7,19-May-2017,1,26,stim.wav,0,1,191,-0.41552249041232625,1,1.0849555009330862
7,19-May-2017,1,26,stim.wav,0,2,293,-0.04955700190123741,1,1.0849555009330862
7,19-May-2017,1,26,stim.wav,0,3,406,3.0483242855951613,1,1.0849555009330862
7,19-May-2017,1,26,stim.wav,0,4,533,-3.500183455664728,1,1.0849555009330862
7,19-May-2017,1,26,stim.wav,0,5,673,0.331070342025894,1,1.0849555009330862
7,19-May-2017,1,26,stim.wav,0,6,830,-1.7820909090892174,1,1.0849555009330862
7,19-May-2017,1,26,stim.wav,0,7,1004,-4.670342359918867,1,1.0849555009330862
7,19-May-2017,1,26,stim.wav,0,8,1199,-5.866853820355146,1,1.0849555009330862
7,19-May-2017,1,26,stim.wav,0,9,1416,5.881983187772787,1,1.0849555009330862
7,19-May-2017,1,26,stim.wav,0,10,1657,-3.614872221602652,1,1.0849555009330862
7,19-May-2017,1,26,stim.wav,0,11,1926,4.958632735759608,1,1.0849555009330862
7,19-May-2017,1,26,stim.wav,0,12,2226,-2.775327880911236,1,1.0849555009330862
7,19-May-2017,1,26,stim.wav,0,13,2560,2.048519941733539,1,1.0849555009330862
7,19-May-2017,1,26,stim.wav,0,14,2932,-0.770031879184665,1,1.0849555009330862
7,19-May-2017,1,26,stim.wav,0,15,3346,-0.3550069367019055,1,1.0849555009330862
7,19-May-2017,1,26,stim.wav,0,16,3808,2.501560808409681,1,1.0849555009330862
7,19-May-2017,1,26,stim.wav,0,17,4322,-2.832266583935117,1,1.0849555009330862
7,19-May-2017,1,26,stim.wav,0,18,4895,-6.381394616055475,1,1.0849555009330862
7,19-May-2017,1,26,stim.wav,0,19,5534,-10.869870533041926,1,1.0849555009330862
7,19-May-2017,1,26,stim.wav,0,20,6245,0.3210717864340583,1,1.0849555009330862
7,19-May-2017,1,26,stim.wav,0,21,7037,9.894844436072342,1,1.0849555009330862
7,19-May-2017,1,26,stim.wav,0,22,7920,1.76397927049023,1,1.0849555009330862
7,19-May-2017,1,26,stim.wav,0,23,8904,4.3027129083900135,1,1.0849555009330862
7,19-May-2017,1,26,stim.wav,0,24,10000,-2.171957921685882,1,1.0849555009330862
7,19-May-2017,1,26,stim.wav,1,0,100,-4.83089211290551,0,1.0849555009330862
7,19-May-2017,1,26,stim.wav,1,1,191,7.6051564172936725,0,1.0849555009330862
7,19-May-2017,1,26,stim.wav,1,2,293,1.5794013689562867,0,1.0849555009330862
7,19-May-2017,1,26,stim.wav,1,3,406,0.5173274054550784,0,1.0849555009330862
7,19-May-2017,1,26,stim.wav,1,4,533,-2.817750602311841,0,1.0849555009330862
7,19-May-2017,1,26,stim.wav,1,5,673,-3.0393268100204223,0,1.0849555009330862
7,19-May-2017,1,26,stim.wav,1,6,830,9.396784957136164,0,1.0849555009330862
7,19-May-2017,1,26,stim.wav,1,7,1004,-0.43053577271969024,0,1.0849555009330862
7,19-May-2017,1,26,stim.wav,1,8,1199,0.20081767530073863,0,1.0849555009330862
7,19-May-2017,1,26,stim.wav,1,9,1416,4.78635980264107,0,1.0849555009330862
7,19-May-2017,1,26,stim.wav,1,10,1657,-6.546720812944702,0,1.0849555009330862
7,19-May-2017,1,26,stim.wav,1,11,1926,-1.437100849088315,0,1.0849555009330862
7,19-May-2017,1,26,stim.wav,1,12,2226,-9.181085531065325,0,1.0849555009330862
7,19-May-2017,1,26,stim.wav,1,13,2560,1.801892685969936,0,1.0849555009330862
7,19-May-2017,1,26,stim.wav,1,14,2932,9.167424135976143,0,1.0849555009330862
7,19-May-2017,1,26,stim.wav,1,15,3346,0.3365842269951034,0,1.0849555009330862
7,19-May-2017,1,26,stim.wav,1,16,3808,4.715423731781446,0,1.0849555009330862
7,19-May-2017,1,26,stim.wav,1,17,4322,4.257730108608296,0,1.0849555009330862
7,19-May-2017,1,26,stim.wav,1,18,4895,2.351076949583882,0,1.0849555009330862
7,19-May-2017,1,26,stim.wav,1,19,5534,-1.2039851521681073,0,1.0849555009330862
7,19-May-2017,1,26,stim.wav,1,20,6245,2.3553841628026477,0,1.0849555009330862
7,19-May-2017,1,26,stim.wav,1,21,7037,4.84852543218861,0,1.0849555009330862
7,19-May-2017,1,26,stim.wav,1,22,7920,0.026462150260789415,0,1.0849555009330862
7,19-May-2017,1,26,stim.wav,1,23,8904,-1.614704070886981,0,1.0849555009330862
7,19-May-2017,1,26,stim.wav,1,24,10000,-6.882528335290619,0,1.0849555009330862
7,19-May-2017,1,27,stim.wav,0,0,100,5.149691202765193,0,0.8123441078719644
7,19-May-2017,1,27,stim.wav,0,1,191,4.100949264012569,0,0.8123441078719644
