subj,date,session,trial,stim,stim_order,filter,filter_freq,filter_gain,response,rt
1,19-May-2017,1,1,stim.wav,0,0,100,-0.8266199211188451,0,3.8236132468727604
1,19-May-2017,1,1,stim.wav,0,1,191,-2.097099907331281,0,3.8236132468727604
1,19-May-2017,1,1,stim.wav,0,2,293,0.5803403235372612,0,3.8236132468727604
1,19-May-2017,1,1,stim.wav,0,3,406,4.2396153781637,0,3.8236132468727604
1,19-May-2017,1,1,stim.wav,0,4,533,-12.133634197080587,0,3.8236132468727604
1,19-May-2017,1,1,stim.wav,0,5,673,-1.3119375662992012,0,3.8236132468727604
1,19-May-2017,1,1,stim.wav,0,6,830,6.543243032192834,0,3.8236132468727604
1,19-May-2017,1,1,stim.wav,0,7,1004,7.588000530026684,0,3.8236132468727604
1,19-May-2017,1,1,stim.wav,0,8,1199,4.020268911416183,0,3.8236132468727604
1,19-May-2017,1,1,stim.wav,0,9,1416,-1.2774770367317603,0,3.8236132468727604
1,19-May-2017,1,1,stim.wav,0,10,1657,6.7638170112428515,0,3.8236132468727604
1,19-May-2017,1,1,stim.wav,0,11,1926,8.891355736828636,0,3.8236132468727604
1,19-May-2017,1,1,stim.wav,0,12,2226,-8.639197203035739,0,3.8236132468727604
1,19-May-2017,1,1,stim.wav,0,13,2560,2.6895048613654393,0,3.8236132468727604
1,19-May-2017,1,1,stim.wav,0,14,2932,-3.3838804848236985,0,3.8236132468727604
1,19-May-2017,1,1,stim.wav,0,15,3346,5.662693415191872,0,3.8236132468727604
1,19-May-2017,1,1,stim.wav,0,16,3808,0.8462068119261941,0,3.8236132468727604
1,19-May-2017,1,1,stim.wav,0,17,4322,5.904888755892843,0,3.8236132468727604
1,19-May-2017,1,1,stim.wav,0,18,4895,-12.283784598713666,0,3.8236132468727604
1,19-May-2017,1,1,stim.wav,0,19,5534,-1.7008579593278168,0,3.8236132468727604
1,19-May-2017,1,1,stim.wav,0,20,6245,0.3007123425393105,0,3.8236132468727604
1,19-May-2017,1,1,stim.wav,0,21,7037,-0.0570631045979549,0,3.8236132468727604
1,19-May-2017,1,1,stim.wav,0,22,7920,9.02532044685691,0,3.8236132468727604
1,19-May-2017,1,1,stim.wav,0,23,8904,-2.130467758108285,0,3.8236132468727604
1,19-May-2017,1,1,stim.wav,0,24,10000,-4.44513297243114,0,3.8236132468727604
1,19-May-2017,1,1,stim.wav,1,0,100,-9.399019977331774,1,3.8236132468727604
1,19-May-2017,1,1,stim.wav,1,1,191,8.372328732455069,1,3.8236132468727604
1,19-May-2017,1,1,stim.wav,1,2,293,1.235067234190923,1,3.8236132468727604
1,19-May-2017,1,1,stim.wav,1,3,406,-7.694225536055668,1,3.8236132468727604
1,19-May-2017,1,1,stim.wav,1,4,533,-10.08086633797376,1,3.8236132468727604
1,19-May-2017,1,1,stim.wav,1,5,673,-3.1406087257516018,1,3.8236132468727604
1,19-May-2017,1,1,stim.wav,1,6,830,-3.955828356180392,1,3.8236132468727604
1,19-May-2017,1,1,stim.wav,1,7,1004,4.471470400524875,1,3.8236132468727604
1,19-May-2017,1,1,stim.wav,1,8,1199,-0.34055023772092874,1,3.8236132468727604
1,19-May-2017,1,1,stim.wav,1,9,1416,-0.1710603998249613,1,3.8236132468727604
1,19-May-2017,1,1,stim.wav,1,10,1657,8.34150010052156,1,3.8236132468727604
1,19-May-2017,1,1,stim.wav,1,11,1926,-10.335577514693526,1,3.8236132468727604
1,19-May-2017,1,1,stim.wav,1,12,2226,-3.018838134437222,1,3.8236132468727604
1,19-May-2017,1,1,stim.wav,1,13,2560,-2.865065962046579,1,3.8236132468727604
1,19-May-2017,1,1,stim.wav,1,14,2932,-4.7433313666399375,1,3.8236132468727604
1,19-May-2017,1,1,stim.wav,1,15,3346,-5.056189223034791,1,3.8236132468727604
1,19-May-2017,1,1,stim.wav,1,16,3808,5.246761638197471,1,3.8236132468727604
1,19-May-2017,1,1,stim.wav,1,17,4322,-3.1139993360647096,1,3.8236132468727604
1,19-May-2017,1,1,stim.wav,1,18,4895,-4.108115214254401,1,3.8236132468727604
1,19-May-2017,1,1,stim.wav,1,19,5534,1.8985083553891173,1,3.8236132468727604
1,19-May-2017,1,1,stim.wav,1,20,6245,3.6234250738654623,1,3.8236132468727604
1,19-May-2017,1,1,stim.wav,1,21,7037,-8.348091370289954,1,3.8236132468727604
1,19-May-2017,1,1,stim.wav,1,22,7920,7.393115317761584,1,3.8236132468727604
1,19-May-2017,1,1,stim.wav,1,23,8904,3.0278285216651266,1,3.8236132468727604
1,19-May-2017,1,1,stim.wav,1,24,10000,0.11600412807824276,1,3.8236132468727604
1,19-May-2017,1,2,stim.wav,0,0,100,1.068286033973356,1,5.557910167441813
1,19-May-2017,1,2,stim.wav,0,1,191,-1.4215685157719304,1,5.557910167441813
1,19-May-2017,1,2,stim.wav,0,2,293,-1.1319566290163758,1,5.557910167441813
1,19-May-2017,1,2,stim.wav,0,3,406,4.917656020182873,1,5.557910167441813
1,19-May-2017,1,2,stim.wav,0,4,533,-3.04460105048634,1,5.557910167441813
1,19-May-2017,1,2,stim.wav,0,5,673,-0.35499607523638094,1,5.557910167441813
1,19-May-2017,1,2,stim.wav,0,6,830,5.8216901736046145,1,5.557910167441813
1,19-May-2017,1,2,stim.wav,0,7,1004,8.438782740471115,1,5.557910167441813
1,19-May-2017,1,2,stim.wav,0,8,1199,1.1064577078011602,1,5.557910167441813
1,19-May-2017,1,2,stim.wav,0,9,1416,1.4943036198465833,1,5.557910167441813
1,19-May-2017,1,2,stim.wav,0,10,1657,3.6902671912498346,1,5.557910167441813
1,19-May-2017,1,2,stim.wav,0,11,1926,-1.8400551247820114,1,5.557910167441813
1,19-May-2017,1,2,stim.wav,0,12,2226,-9.133650797841755,1,5.557910167441813
1,19-May-2017,1,2,stim.wav,0,13,2560,5.156897400863706,1,5.557910167441813
1,19-May-2017,1,2,stim.wav,0,14,2932,3.593876471790133,1,5.557910167441813
1,19-May-2017,1,2,stim.wav,0,15,3346,5.14553014420752,1,5.557910167441813
1,19-May-2017,1,2,stim.wav,0,16,3808,1.7569479677895545,1,5.557910167441813
1,19-May-2017,1,2,stim.wav,0,17,4322,7.18210798178348,1,5.557910167441813
1,19-May-2017,1,2,stim.wav,0,18,4895,0.661382206312623,1,5.557910167441813
1,19-May-2017,1,2,stim.wav,0,19,5534,5.492261062967463,1,5.557910167441813
1,19-May-2017,1,2,stim.wav,0,20,6245,-11.00494397080631,1,5.557910167441813
1,19-May-2017,1,2,stim.wav,0,21,7037,-7.299901538373136,1,5.557910167441813
1,19-May-2017,1,2,stim.wav,0,22,7920,-6.209110532491376,1,5.557910167441813
1,19-May-2017,1,2,stim.wav,0,23,8904,4.254155236427247,1,5.557910167441813
1,19-May-2017,1,2,stim.wav,0,24,10000,2.7553641861283165,1,5.557910167441813
1,19-May-2017,1,2,stim.wav,1,0,100,3.1383272197202556,0,5.557910167441813
1,19-May-2017,1,2,stim.wav,1,1,191,3.111580347177248,0,5.557910167441813
1,19-May-2017,1,2,stim.wav,1,2,293,2.906213176188005,0,5.557910167441813
1,19-May-2017,1,2,stim.wav,1,3,406,2.421128362389424,0,5.557910167441813
1,19-May-2017,1,2,stim.wav,1,4,533,7.39531848420719,0,5.557910167441813
1,19-May-2017,1,2,stim.wav,1,5,673,-2.601812758019566,0,5.557910167441813
1,19-May-2017,1,2,stim.wav,1,6,830,-6.032347949482986,0,5.557910167441813
1,19-May-2017,1,2,stim.wav,1,7,1004,-4.752585124237367,0,5.557910167441813
1,19-May-2017,1,2,stim.wav,1,8,1199,-0.6168747195586102,0,5.557910167441813
1,19-May-2017,1,2,stim.wav,1,9,1416,-3.20848917812595,0,5.557910167441813
1,19-May-2017,1,2,stim.wav,1,10,1657,-2.140393941108723,0,5.557910167441813
1,19-May-2017,1,2,stim.wav,1,11,1926,-1.6311500898185258,0,5.557910167441813
1,19-May-2017,1,2,stim.wav,1,12,2226,-3.94267681573047,0,5.557910167441813
1,19-May-2017,1,2,stim.wav,1,13,2560,-1.7085414430642734,0,5.557910167441813
1,19-May-2017,1,2,stim.wav,1,14,2932,6.625298162243753,0,5.557910167441813
1,19-May-2017,1,2,stim.wav,1,15,3346,5.410890066588598,0,5.557910167441813
1,19-May-2017,1,2,stim.wav,1,16,3808,5.0787166105803125,0,5.557910167441813
1,19-May-2017,1,2,stim.wav,1,17,4322,-3.123682919315549,0,5.557910167441813
1,19-May-2017,1,2,stim.wav,1,18,4895,7.64053559887797,0,5.557910167441813
1,19-May-2017,1,2,stim.wav,1,19,5534,5.82669736482909,0,5.557910167441813
1,19-May-2017,1,2,stim.wav,1,20,6245,-5.647337623170376,0,5.557910167441813
1,19-May-2017,1,2,stim.wav,1,21,7037,4.208300970019672,0,5.557910167441813
1,19-May-2017,1,2,stim.wav,1,22,7920,-0.7445011867390234,0,5.557910167441813
1,19-May-2017,1,2,stim.wav,1,23,8904,-0.07346703038662353,0,5.557910167441813
1,19-May-2017,1,2,stim.wav,1,24,10000,5.218878547197424,0,5.557910167441813
1,19-May-2017,1,3,stim.wav,0,0,100,-3.216203902596278,1,4.672395620410488
1,19-May-2017,1,3,stim.wav,0,1,191,-9.17109355328024,1,4.672395620410488
1,19-May-2017,1,3,stim.wav,0,2,293,-0.16290389206090167,1,4.672395620410488
1,19-May-2017,1,3,stim.wav,0,3,406,3.2960514705037203,1,4.672395620410488
1,19-May-2017,1,3,stim.wav,0,4,533,-2.197500976180137,1,4.672395620410488
1,19-May-2017,1,3,stim.wav,0,5,673,7.754227259572559,1,4.672395620410488
1,19-May-2017,1,3,stim.wav,0,6,830,6.107249398935773,1,4.672395620410488
1,19-May-2017,1,3,stim.wav,0,7,1004,8.125109330977484,1,4.672395620410488
1,19-May-2017,1,3,stim.wav,0,8,1199,-1.404663311643715,1,4.672395620410488
1,19-May-2017,1,3,stim.wav,0,9,1416,9.137450469338267,1,4.672395620410488
1,19-May-2017,1,3,stim.wav,0,10,1657,-2.4569918065911063,1,4.672395620410488
1,19-May-2017,1,3,stim.wav,0,11,1926,2.268830287478463,1,4.672395620410488
1,19-May-2017,1,3,stim.wav,0,12,2226,0.17268404870936757,1,4.672395620410488
1,19-May-2017,1,3,stim.wav,0,13,2560,-1.4207933465611142,1,4.672395620410488
1,19-May-2017,1,3,stim.wav,0,14,2932,6.954048544431267,1,4.672395620410488
1,19-May-2017,1,3,stim.wav,0,15,3346,-12.097121713933813,1,4.672395620410488
1,19-May-2017,1,3,stim.wav,0,16,3808,-0.9094786563798741,1,4.672395620410488
1,19-May-2017,1,3,stim.wav,0,17,4322,-1.8130227064209299,1,4.672395620410488
1,19-May-2017,1,3,stim.wav,0,18,4895,5.146928666464953,1,4.672395620410488
1,19-May-2017,1,3,stim.wav,0,19,5534,-6.360348126955091,1,4.672395620410488
1,19-May-2017,1,3,stim.wav,0,20,6245,-2.212336049246908,1,4.672395620410488
1,19-May-2017,1,3,stim.wav,0,21,7037,3.3596901573350877,1,4.672395620410488
1,19-May-2017,1,3,stim.wav,0,22,7920,-1.9115248823640987,1,4.672395620410488
1,19-May-2017,1,3,stim.wav,0,23,8904,2.318478252758617,1,4.672395620410488
1,19-May-2017,1,3,stim.wav,0,24,10000,-6.975263541517714,1,4.672395620410488
1,19-May-2017,1,3,stim.wav,1,0,100,-3.767945547904514,0,4.672395620410488
1,19-May-2017,1,3,stim.wav,1,1,191,-6.117690028271144,0,4.672395620410488
1,19-May-2017,1,3,stim.wav,1,2,293,8.03627323084706,0,4.672395620410488
1,19-May-2017,1,3,stim.wav,1,3,406,11.782860074457043,0,4.672395620410488
1,19-May-2017,1,3,stim.wav,1,4,533,3.371400130351433,0,4.672395620410488
1,19-May-2017,1,3,stim.wav,1,5,673,2.7971817095470057,0,4.672395620410488
1,19-May-2017,1,3,stim.wav,1,6,830,-3.6046910244352794,0,4.672395620410488
1,19-May-2017,1,3,stim.wav,1,7,1004,2.0335355051652146,0,4.672395620410488
1,19-May-2017,1,3,stim.wav,1,8,1199,0.3256489066372933,0,4.672395620410488
1,19-May-2017,1,3,stim.wav,1,9,1416,1.236002190958843,0,4.672395620410488
1,19-May-2017,1,3,stim.wav,1,10,1657,-4.281413423208012,0,4.672395620410488
1,19-May-2017,1,3,stim.wav,1,11,1926,-1.992384825818506,0,4.672395620410488
1,19-May-2017,1,3,stim.wav,1,12,2226,-1.1516121975156,0,4.672395620410488
1,19-May-2017,1,3,stim.wav,1,13,2560,-0.2011960507213214,0,4.672395620410488
1,19-May-2017,1,3,stim.wav,1,14,2932,7.156028261272284,0,4.672395620410488
1,19-May-2017,1,3,stim.wav,1,15,3346,-3.368694857683212,0,4.672395620410488
1,19-May-2017,1,3,stim.wav,1,16,3808,-0.037046146638006365,0,4.672395620410488
1,19-May-2017,1,3,stim.wav,1,17,4322,-5.660304378466535,0,4.672395620410488
1,19-May-2017,1,3,stim.wav,1,18,4895,-0.05881410576381096,0,4.672395620410488
1,19-May-2017,1,3,stim.wav,1,19,5534,3.916360220238687,0,4.672395620410488
1,19-May-2017,1,3,stim.wav,1,20,6245,-5.77905984485731,0,4.672395620410488
1,19-May-2017,1,3,stim.wav,1,21,7037,-4.317134224537103,0,4.672395620410488
1,19-May-2017,1,3,stim.wav,1,22,7920,0.22536066634891477,0,4.672395620410488
1,19-May-2017,1,3,stim.wav,1,23,8904,9.277926425608507,0,4.672395620410488
1,19-May-2017,1,3,stim.wav,1,24,10000,1.4309146641680206,0,4.672395620410488
1,19-May-2017,1,4,stim.wav,0,0,100,1.3888672724736209,1,3.632408004502062
1,19-May-2017,1,4,stim.wav,0,1,191,-3.7760896803963484,1,3.632408004502062
1,19-May-2017,1,4,stim.wav,0,2,293,1.0484642461478946,1,3.632408004502062
1,19-May-2017,1,4,stim.wav,0,3,406,-4.796739728281223,1,3.632408004502062
1,19-May-2017,1,4,stim.wav,0,4,533,3.262947953897946,1,3.632408004502062
1,19-May-2017,1,4,stim.wav,0,5,673,-5.55027774155148,1,3.632408004502062
1,19-May-2017,1,4,stim.wav,0,6,830,-5.327754463316191,1,3.632408004502062
1,19-May-2017,1,4,stim.wav,0,7,1004,-9.179090080694609,1,3.632408004502062
1,19-May-2017,1,4,stim.wav,0,8,1199,-5.275982460832167,1,3.632408004502062
1,19-May-2017,1,4,stim.wav,0,9,1416,-6.93643999770827,1,3.632408004502062
1,19-May-2017,1,4,stim.wav,0,10,1657,-6.993323104523136,1,3.632408004502062
1,19-May-2017,1,4,stim.wav,0,11,1926,0.01723600545920611,1,3.632408004502062
1,19-May-2017,1,4,stim.wav,0,12,2226,-3.0704677194633474,1,3.632408004502062
1,19-May-2017,1,4,stim.wav,0,13,2560,-3.5149729840995936,1,3.632408004502062
1,19-May-2017,1,4,stim.wav,0,14,2932,3.925137746357685,1,3.632408004502062
1,19-May-2017,1,4,stim.wav,0,15,3346,6.392368455419288,1,3.632408004502062
1,19-May-2017,1,4,stim.wav,0,16,3808,-1.3673598093109272,1,3.632408004502062
1,19-May-2017,1,4,stim.wav,0,17,4322,3.6212307712497385,1,3.632408004502062
1,19-May-2017,1,4,stim.wav,0,18,4895,8.273963195441112,1,3.632408004502062
1,19-May-2017,1,4,stim.wav,0,19,5534,-10.355889778877383,1,3.632408004502062
1,19-May-2017,1,4,stim.wav,0,20,6245,4.666762019069957,1,3.632408004502062
1,19-May-2017,1,4,stim.wav,0,21,7037,3.7336815307284876,1,3.632408004502062
1,19-May-2017,1,4,stim.wav,0,22,7920,-2.300980022618928,1,3.632408004502062
1,19-May-2017,1,4,stim.wav,0,23,8904,2.300606328927227,1,3.632408004502062
1,19-May-2017,1,4,stim.wav,0,24,10000,0.4037371253402536,1,3.632408004502062
1,19-May-2017,1,4,stim.wav,1,0,100,0.30998654262862996,0,3.632408004502062
1,19-May-2017,1,4,stim.wav,1,1,191,1.8181972806400972,0,3.632408004502062
1,19-May-2017,1,4,stim.wav,1,2,293,4.256846244577165,0,3.632408004502062
1,19-May-2017,1,4,stim.wav,1,3,406,-5.1319830780026185,0,3.632408004502062
1,19-May-2017,1,4,stim.wav,1,4,533,2.64968845846767,0,3.632408004502062
1,19-May-2017,1,4,stim.wav,1,5,673,6.225052341659181,0,3.632408004502062
1,19-May-2017,1,4,stim.wav,1,6,830,-0.5700574997202336,0,3.632408004502062
1,19-May-2017,1,4,stim.wav,1,7,1004,-5.09636437196825,0,3.632408004502062
1,19-May-2017,1,4,stim.wav,1,8,1199,-0.04404471288408318,0,3.632408004502062
1,19-May-2017,1,4,stim.wav,1,9,1416,5.417409002024981,0,3.632408004502062
1,19-May-2017,1,4,stim.wav,1,10,1657,-2.8360009529217574,0,3.632408004502062
1,19-May-2017,1,4,stim.wav,1,11,1926,-4.778181210352638,0,3.632408004502062
1,19-May-2017,1,4,stim.wav,1,12,2226,-3.1974231501005885,0,3.632408004502062
1,19-May-2017,1,4,stim.wav,1,13,2560,3.5349445983235537,0,3.632408004502062
1,19-May-2017,1,4,stim.wav,1,14,2932,4.129897800124366,0,3.632408004502062
1,19-May-2017,1,4,stim.wav,1,15,3346,-2.740655051694793,0,3.632408004502062
1,19-May-2017,1,4,stim.wav,1,16,3808,7.970624958740489,0,3.632408004502062
1,19-May-2017,1,4,stim.wav,1,17,4322,1.3286077525587299,0,3.632408004502062
1,19-May-2017,1,4,stim.wav,1,18,4895,3.333898943954701,0,3.632408004502062
1,19-May-2017,1,4,stim.wav,1,19,5534,6.866384376738106,0,3.632408004502062
1,19-May-2017,1,4,stim.wav,1,20,6245,3.3944032041651178,0,3.632408004502062
1,19-May-2017,1,4,stim.wav,1,21,7037,-2.5826151845203715,0,3.632408004502062
1,19-May-2017,1,4,stim.wav,1,22,7920,-0.2426102356692622,0,3.632408004502062
1,19-May-2017,1,4,stim.wav,1,23,8904,-3.9521436005764854,0,3.632408004502062
1,19-May-2017,1,4,stim.wav,1,24,10000,-4.794164866693441,0,3.632408004502062
1,19-May-2017,1,5,stim.wav,0,0,100,2.5127440446028135,0,3.303817002810368
1,19-May-2017,1,5,stim.wav,0,1,191,3.4235184925142366,0,3.303817002810368
1,19-May-2017,1,5,stim.wav,0,2,293,-6.082708142590536,0,3.303817002810368
1,19-May-2017,1,5,stim.wav,0,3,406,12.261632689026188,0,3.303817002810368
1,19-May-2017,1,5,stim.wav,0,4,533,-9.609685760681304,0,3.303817002810368
1,19-May-2017,1,5,stim.wav,0,5,673,-8.270949949722212,0,3.303817002810368
1,19-May-2017,1,5,stim.wav,0,6,830,-0.12166447770819815,0,3.303817002810368
1,19-May-2017,1,5,stim.wav,0,7,1004,-7.545135188469757,0,3.303817002810368
1,19-May-2017,1,5,stim.wav,0,8,1199,1.3865173362729437,0,3.303817002810368
1,19-May-2017,1,5,stim.wav,0,9,1416,-1.3693091584838841,0,3.303817002810368
1,19-May-2017,1,5,stim.wav,0,10,1657,0.23573124722358255,0,3.303817002810368
1,19-May-2017,1,5,stim.wav,0,11,1926,-5.412206066177716,0,3.303817002810368
1,19-May-2017,1,5,stim.wav,0,12,2226,-5.297245155179277,0,3.303817002810368
1,19-May-2017,1,5,stim.wav,0,13,2560,-2.804725626332381,0,3.303817002810368
1,19-May-2017,1,5,stim.wav,0,14,2932,-0.8805218782688496,0,3.303817002810368
1,19-May-2017,1,5,stim.wav,0,15,3346,2.897054379356316,0,3.303817002810368
1,19-May-2017,1,5,stim.wav,0,16,3808,1.8254701685441808,0,3.303817002810368
1,19-May-2017,1,5,stim.wav,0,17,4322,3.4358964193883192,0,3.303817002810368
1,19-May-2017,1,5,stim.wav,0,18,4895,0.14516005339725202,0,3.303817002810368
1,19-May-2017,1,5,stim.wav,0,19,5534,2.5378533591632637,0,3.303817002810368
1,19-May-2017,1,5,stim.wav,0,20,6245,-3.0586147163271504,0,3.303817002810368
1,19-May-2017,1,5,stim.wav,0,21,7037,3.59840447099401,0,3.303817002810368
1,19-May-2017,1,5,stim.wav,0,22,7920,-2.3579256817027314,0,3.303817002810368
1,19-May-2017,1,5,stim.wav,0,23,8904,4.454660862571834,0,3.303817002810368
1,19-May-2017,1,5,stim.wav,0,24,10000,7.122110477247895,0,3.303817002810368
1,19-May-2017,1,5,stim.wav,1,0,100,10.880774682107283,1,3.303817002810368
1,19-May-2017,1,5,stim.wav,1,1,191,0.6217225517650157,1,3.303817002810368
1,19-May-2017,1,5,stim.wav,1,2,293,0.6961125773465584,1,3.303817002810368
1,19-May-2017,1,5,stim.wav,1,3,406,2.982074986253026,1,3.303817002810368
1,19-May-2017,1,5,stim.wav,1,4,533,4.344329023830532,1,3.303817002810368
1,19-May-2017,1,5,stim.wav,1,5,673,2.550699021929523,1,3.303817002810368
1,19-May-2017,1,5,stim.wav,1,6,830,-3.55978165031238,1,3.303817002810368
1,19-May-2017,1,5,stim.wav,1,7,1004,8.99629697688977,1,3.303817002810368
1,19-May-2017,1,5,stim.wav,1,8,1199,8.33607248951854,1,3.303817002810368
1,19-May-2017,1,5,stim.wav,1,9,1416,1.024615167776958,1,3.303817002810368
1,19-May-2017,1,5,stim.wav,1,10,1657,-6.9687665925922735,1,3.303817002810368
1,19-May-2017,1,5,stim.wav,1,11,1926,-4.04814370320209,1,3.303817002810368
1,19-May-2017,1,5,stim.wav,1,12,2226,4.187152127441645,1,3.303817002810368
1,19-May-2017,1,5,stim.wav,1,13,2560,4.119085053554277,1,3.303817002810368
1,19-May-2017,1,5,stim.wav,1,14,2932,2.391692957808334,1,3.303817002810368
1,19-May-2017,1,5,stim.wav,1,15,3346,-6.530668900144757,1,3.303817002810368
1,19-May-2017,1,5,stim.wav,1,16,3808,10.43019885492937,1,3.303817002810368
1,19-May-2017,1,5,stim.wav,1,17,4322,-7.558199490130351,1,3.303817002810368
1,19-May-2017,1,5,stim.wav,1,18,4895,3.6755035220332117,1,3.303817002810368
1,19-May-2017,1,5,stim.wav,1,19,5534,-0.23304055347251715,1,3.303817002810368
1,19-May-2017,1,5,stim.wav,1,20,6245,3.1076611388857907,1,3.303817002810368
1,19-May-2017,1,5,stim.wav,1,21,7037,-2.211055053453061,1,3.303817002810368
1,19-May-2017,1,5,stim.wav,1,22,7920,0.16939004833853555,1,3.303817002810368
1,19-May-2017,1,5,stim.wav,1,23,8904,4.83122552328875,1,3.303817002810368
1,19-May-2017,1,5,stim.wav,1,24,10000,-0.28141192443406804,1,3.303817002810368
1,19-May-2017,1,6,stim.wav,0,0,100,-9.754527813681499,0,3.3241960175908836
1,19-May-2017,1,6,stim.wav,0,1,191,2.0578517641113727,0,3.3241960175908836
1,19-May-2017,1,6,stim.wav,0,2,293,-6.661852785442937,0,3.3241960175908836
1,19-May-2017,1,6,stim.wav,0,3,406,2.3858007818266183,0,3.3241960175908836
1,19-May-2017,1,6,stim.wav,0,4,533,0.005454792439674231,0,3.3241960175908836
1,19-May-2017,1,6,stim.wav,0,5,673,4.840478837627868,0,3.3241960175908836
1,19-May-2017,1,6,stim.wav,0,6,830,-0.19971808076144187,0,3.3241960175908836
1,19-May-2017,1,6,stim.wav,0,7,1004,0.35298108514723614,0,3.3241960175908836
1,19-May-2017,1,6,stim.wav,0,8,1199,-1.0694764517388715,0,3.3241960175908836
1,19-May-2017,1,6,stim.wav,0,9,1416,-0.9166079075016262,0,3.3241960175908836
1,19-May-2017,1,6,stim.wav,0,10,1657,-0.451937311711956,0,3.3241960175908836
1,19-May-2017,1,6,stim.wav,0,11,1926,4.1245158148511285,0,3.3241960175908836
1,19-May-2017,1,6,stim.wav,0,12,2226,-5.040435736732371,0,3.3241960175908836
1,19-May-2017,1,6,stim.wav,0,13,2560,5.295679292589863,0,3.3241960175908836
1,19-May-2017,1,6,stim.wav,0,14,2932,-5.8079390796129164,0,3.3241960175908836
1,19-May-2017,1,6,stim.wav,0,15,3346,4.71089861985805,0,3.3241960175908836
1,19-May-2017,1,6,stim.wav,0,16,3808,-3.9339866017319114,0,3.3241960175908836
1,19-May-2017,1,6,stim.wav,0,17,4322,3.048996370520218,0,3.3241960175908836
1,19-May-2017,1,6,stim.wav,0,18,4895,-2.188249701710607,0,3.3241960175908836
1,19-May-2017,1,6,stim.wav,0,19,5534,-0.8807717447543344,0,3.3241960175908836
1,19-May-2017,1,6,stim.wav,0,20,6245,-0.8776068284786471,0,3.3241960175908836
1,19-May-2017,1,6,stim.wav,0,21,7037,0.27783367634581285,0,3.3241960175908836
1,19-May-2017,1,6,stim.wav,0,22,7920,1.1825432535734166,0,3.3241960175908836
1,19-May-2017,1,6,stim.wav,0,23,8904,1.5128547626352287,0,3.3241960175908836
1,19-May-2017,1,6,stim.wav,0,24,10000,-2.8522389391394283,0,3.3241960175908836
1,19-May-2017,1,6,stim.wav,1,0,100,-1.7822360994030761,1,3.3241960175908836
1,19-May-2017,1,6,stim.wav,1,1,191,1.5656885885618352,1,3.3241960175908836
1,19-May-2017,1,6,stim.wav,1,2,293,-0.09206030270658366,1,3.3241960175908836
1,19-May-2017,1,6,stim.wav,1,3,406,-1.0934932170655993,1,3.3241960175908836
1,19-May-2017,1,6,stim.wav,1,4,533,-3.2907042910775406,1,3.3241960175908836
1,19-May-2017,1,6,stim.wav,1,5,673,-3.5236555912314795,1,3.3241960175908836
1,19-May-2017,1,6,stim.wav,1,6,830,-3.31090855972962,1,3.3241960175908836
1,19-May-2017,1,6,stim.wav,1,7,1004,0.5768384294846695,1,3.3241960175908836
1,19-May-2017,1,6,stim.wav,1,8,1199,-0.47875745307015294,1,3.3241960175908836
1,19-May-2017,1,6,stim.wav,1,9,1416,1.0270719500602485,1,3.3241960175908836
1,19-May-2017,1,6,stim.wav,1,10,1657,2.4495728032200677,1,3.3241960175908836
1,19-May-2017,1,6,stim.wav,1,11,1926,0.567646338206691,1,3.3241960175908836
1,19-May-2017,1,6,stim.wav,1,12,2226,8.28429229080508,1,3.3241960175908836
1,19-May-2017,1,6,stim.wav,1,13,2560,-0.5593206656713489,1,3.3241960175908836
1,19-May-2017,1,6,stim.wav,1,14,2932,2.4865342904334677,1,3.3241960175908836
1,19-May-2017,1,6,stim.wav,1,15,3346,-5.838890530493193,1,3.3241960175908836
1,19-May-2017,1,6,stim.wav,1,16,3808,8.977033610637502,1,3.3241960175908836
1,19-May-2017,1,6,stim.wav,1,17,4322,-3.1928397391081975,1,3.3241960175908836
1,19-May-2017,1,6,stim.wav,1,18,4895,1.2518943118424162,1,3.3241960175908836
1,19-May-2017,1,6,stim.wav,1,19,5534,-6.011544130418205,1,3.3241960175908836
1,19-May-2017,1,6,stim.wav,1,20,6245,-2.236133984822512,1,3.3241960175908836
1,19-May-2017,1,6,stim.wav,1,21,7037,-7.287199573926921,1,3.3241960175908836
1,19-May-2017,1,6,stim.wav,1,22,7920,-2.9733718173434953,1,3.3241960175908836
1,19-May-2017,1,6,stim.wav,1,23,8904,1.0886185032327516,1,3.3241960175908836
1,19-May-2017,1,6,stim.wav,1,24,10000,-1.9532867770781066,1,3.3241960175908836
1,19-May-2017,1,7,stim.wav,0,0,100,3.949293108374357,1,2.2065297004384035
1,19-May-2017,1,7,stim.wav,0,1,191,-1.5171481208717161,1,2.2065297004384035
1,19-May-2017,1,7,stim.wav,0,2,293,2.2044618969707583,1,2.2065297004384035
1,19-May-2017,1,7,stim.wav,0,3,406,3.529275267533969,1,2.2065297004384035
1,19-May-2017,1,7,stim.wav,0,4,533,-5.109334785324693,1,2.2065297004384035
1,19-May-2017,1,7,stim.wav,0,5,673,-0.7947199675264613,1,2.2065297004384035
1,19-May-2017,1,7,stim.wav,0,6,830,-1.558623302303205,1,2.2065297004384035
1,19-May-2017,1,7,stim.wav,0,7,1004,-5.286575503983471,1,2.2065297004384035
1,19-May-2017,1,7,stim.wav,0,8,1199,-6.973196281691848,1,2.2065297004384035
1,19-May-2017,1,7,stim.wav,0,9,1416,-2.5184771625837716,1,2.2065297004384035
1,19-May-2017,1,7,stim.wav,0,10,1657,-1.5531640124300352,1,2.2065297004384035
1,19-May-2017,1,7,stim.wav,0,11,1926,2.623168909531348,1,2.2065297004384035
1,19-May-2017,1,7,stim.wav,0,12,2226,0.018087193730219702,1,2.2065297004384035
1,19-May-2017,1,7,stim.wav,0,13,2560,4.290073116137938,1,2.2065297004384035
1,19-May-2017,1,7,stim.wav,0,14,2932,1.7153062299870794,1,2.2065297004384035
1,19-May-2017,1,7,stim.wav,0,15,3346,-4.997666076661991,1,2.2065297004384035
1,19-May-2017,1,7,stim.wav,0,16,3808,0.29150904897312974,1,2.2065297004384035
1,19-May-2017,1,7,stim.wav,0,17,4322,-4.889157601317258,1,2.2065297004384035
1,19-May-2017,1,7,stim.wav,0,18,4895,-1.6407454300506221,1,2.2065297004384035
1,19-May-2017,1,7,stim.wav,0,19,5534,-9.74785509257146,1,2.2065297004384035
1,19-May-2017,1,7,stim.wav,0,20,6245,-0.8158194867446356,1,2.2065297004384035
1,19-May-2017,1,7,stim.wav,0,21,7037,0.6879960726882478,1,2.2065297004384035
1,19-May-2017,1,7,stim.wav,0,22,7920,-1.0662803299209076,1,2.2065297004384035
1,19-May-2017,1,7,stim.wav,0,23,8904,6.11460374052693,1,2.2065297004384035
1,19-May-2017,1,7,stim.wav,0,24,10000,9.958936618706518,1,2.2065297004384035
1,19-May-2017,1,7,stim.wav,1,0,100,-2.6125147453043454,0,2.2065297004384035
1,19-May-2017,1,7,stim.wav,1,1,191,-8.906307264070886,0,2.2065297004384035
1,19-May-2017,1,7,stim.wav,1,2,293,-3.7296060605749783,0,2.2065297004384035
1,19-May-2017,1,7,stim.wav,1,3,406,-0.7757921552481484,0,2.2065297004384035
1,19-May-2017,1,7,stim.wav,1,4,533,4.582260887007263,0,2.2065297004384035
1,19-May-2017,1,7,stim.wav,1,5,673,-1.3802828667565439,0,2.2065297004384035
1,19-May-2017,1,7,stim.wav,1,6,830,6.683553769713867,0,2.2065297004384035
1,19-May-2017,1,7,stim.wav,1,7,1004,3.1587638149351966,0,2.2065297004384035
1,19-May-2017,1,7,stim.wav,1,8,1199,4.270204840835441,0,2.2065297004384035
1,19-May-2017,1,7,stim.wav,1,9,1416,1.9660241587125413,0,2.2065297004384035
1,19-May-2017,1,7,stim.wav,1,10,1657,-10.738373332572236,0,2.2065297004384035
1,19-May-2017,1,7,stim.wav,1,11,1926,2.9281124191444947,0,2.2065297004384035
1,19-May-2017,1,7,stim.wav,1,12,2226,-10.517535337811456,0,2.2065297004384035
1,19-May-2017,1,7,stim.wav,1,13,2560,-4.6620447346716425,0,2.2065297004384035
1,19-May-2017,1,7,stim.wav,1,14,2932,-0.7561476036887742,0,2.2065297004384035
1,19-May-2017,1,7,stim.wav,1,15,3346,-6.1597472115618785,0,2.2065297004384035
1,19-May-2017,1,7,stim.wav,1,16,3808,7.339090698469974,0,2.2065297004384035
1,19-May-2017,1,7,stim.wav,1,17,4322,-0.16863129192142362,0,2.2065297004384035
1,19-May-2017,1,7,stim.wav,1,18,4895,-3.7406294582855075,0,2.2065297004384035
1,19-May-2017,1,7,stim.wav,1,19,5534,0.6727896376064797,0,2.2065297004384035
1,19-May-2017,1,7,stim.wav,1,20,6245,2.683658826898105,0,2.2065297004384035
1,19-May-2017,1,7,stim.wav,1,21,7037,-1.0559843946872576,0,2.2065297004384035
1,19-May-2017,1,7,stim.wav,1,22,7920,-3.7301028906116382,0,2.2065297004384035
1,19-May-2017,1,7,stim.wav,1,23,8904,3.522824059667249,0,2.2065297004384035
1,19-May-2017,1,7,stim.wav,1,24,10000,2.626129612438457,0,2.2065297004384035
1,19-May-2017,1,8,stim.wav,0,0,100,-8.051275413636823,1,1.600245629219614
1,19-May-2017,1,8,stim.wav,0,1,191,5.952302124150269,1,1.600245629219614
1,19-May-2017,1,8,stim.wav,0,2,293,-7.488464345819126,1,1.600245629219614
1,19-May-2017,1,8,stim.wav,0,3,406,0.5204531882044363,1,1.600245629219614
1,19-May-2017,1,8,stim.wav,0,4,533,-1.898269612279213,1,1.600245629219614
1,19-May-2017,1,8,stim.wav,0,5,673,0.4169349665621854,1,1.600245629219614
1,19-May-2017,1,8,stim.wav,0,6,830,2.3326131774696455,1,1.600245629219614
1,19-May-2017,1,8,stim.wav,0,7,1004,-7.468379671159273,1,1.600245629219614
1,19-May-2017,1,8,stim.wav,0,8,1199,-4.573309785644852,1,1.600245629219614
1,19-May-2017,1,8,stim.wav,0,9,1416,-1.8866765094383697,1,1.600245629219614
1,19-May-2017,1,8,stim.wav,0,10,1657,-2.4821470336983094,1,1.600245629219614
1,19-May-2017,1,8,stim.wav,0,11,1926,11.946075989978526,1,1.600245629219614
1,19-May-2017,1,8,stim.wav,0,12,2226,-7.589178827773074,1,1.600245629219614
1,19-May-2017,1,8,stim.wav,0,13,2560,2.707528203162925,1,1.600245629219614
1,19-May-2017,1,8,stim.wav,0,14,2932,1.1276894066481475,1,1.600245629219614
1,19-May-2017,1,8,stim.wav,0,15,3346,-3.318273348752576,1,1.600245629219614
1,19-May-2017,1,8,stim.wav,0,16,3808,-4.24054793146445,1,1.600245629219614
1,19-May-2017,1,8,stim.wav,0,17,4322,1.7990915533791534,1,1.600245629219614
1,19-May-2017,1,8,stim.wav,0,18,4895,-2.2511068797016653,1,1.600245629219614
1,19-May-2017,1,8,stim.wav,0,19,5534,4.900663907469256,1,1.600245629219614
1,19-May-2017,1,8,stim.wav,0,20,6245,0.7825329854576014,1,1.600245629219614
1,19-May-2017,1,8,stim.wav,0,21,7037,3.559875024933467,1,1.600245629219614
1,19-May-2017,1,8,stim.wav,0,22,7920,0.45300216508340496,1,1.600245629219614
1,19-May-2017,1,8,stim.wav,0,23,8904,1.2570072927419738,1,1.600245629219614
1,19-May-2017,1,8,stim.wav,0,24,10000,8.607510274375487,1,1.600245629219614
1,19-May-2017,1,8,stim.wav,1,0,100,0.47651097698593686,0,1.600245629219614
1,19-May-2017,1,8,stim.wav,1,1,191,-0.8048079362647635,0,1.600245629219614
1,19-May-2017,1,8,stim.wav,1,2,293,-0.6678321479393499,0,1.600245629219614
1,19-May-2017,1,8,stim.wav,1,3,406,1.1097431630614434,0,1.600245629219614
1,19-May-2017,1,8,stim.wav,1,4,533,0.5273011781726027,0,1.600245629219614
1,19-May-2017,1,8,stim.wav,1,5,673,0.6371472738602177,0,1.600245629219614
1,19-May-2017,1,8,stim.wav,1,6,830,0.5723394520279226,0,1.600245629219614
1,19-May-2017,1,8,stim.wav,1,7,1004,-5.998948912944446,0,1.600245629219614
1,19-May-2017,1,8,stim.wav,1,8,1199,-2.6364432200887196,0,1.600245629219614
1,19-May-2017,1,8,stim.wav,1,9,1416,0.4777681450625504,0,1.600245629219614
1,19-May-2017,1,8,stim.wav,1,10,1657,-1.9254860308383026,0,1.600245629219614
1,19-May-2017,1,8,stim.wav,1,11,1926,2.84835907995118,0,1.600245629219614
1,19-May-2017,1,8,stim.wav,1,12,2226,-2.522709472389986,0,1.600245629219614
1,19-May-2017,1,8,stim.wav,1,13,2560,-1.8873939239270807,0,1.600245629219614
1,19-May-2017,1,8,stim.wav,1,14,2932,1.4317991278713438,0,1.600245629219614
1,19-May-2017,1,8,stim.wav,1,15,3346,4.305460487957789,0,1.600245629219614
1,19-May-2017,1,8,stim.wav,1,16,3808,3.6379550503091056,0,1.600245629219614
1,19-May-2017,1,8,stim.wav,1,17,4322,8.814819080492773,0,1.600245629219614
1,19-May-2017,1,8,stim.wav,1,18,4895,0.03976299870852317,0,1.600245629219614
1,19-May-2017,1,8,stim.wav,1,19,5534,1.9174536226487993,0,1.600245629219614
1,19-May-2017,1,8,stim.wav,1,20,6245,-0.3181912456270056,0,1.600245629219614
1,19-May-2017,1,8,stim.wav,1,21,7037,1.0085555693905894,0,1.600245629219614
1,19-May-2017,1,8,stim.wav,1,22,7920,-3.5296618765090377,0,1.600245629219614
1,19-May-2017,1,8,stim.wav,1,23,8904,-2.0732383173096145,0,1.600245629219614
1,19-May-2017,1,8,stim.wav,1,24,10000,-3.2740419209611735,0,1.600245629219614
1,19-May-2017,1,9,stim.wav,0,0,100,0.49282404263248625,1,2.7493323024660423
1,19-May-2017,1,9,stim.wav,0,1,191,-3.919222385761852,1,2.7493323024660423
1,19-May-2017,1,9,stim.wav,0,2,293,-3.648027509146838,1,2.7493323024660423
1,19-May-2017,1,9,stim.wav,0,3,406,-10.807429686337633,1,2.7493323024660423
1,19-May-2017,1,9,stim.wav,0,4,533,1.7172547966692617,1,2.7493323024660423
1,19-May-2017,1,9,stim.wav,0,5,673,0.36566758132777216,1,2.7493323024660423
1,19-May-2017,1,9,stim.wav,0,6,830,-1.7649279150625614,1,2.7493323024660423
1,19-May-2017,1,9,stim.wav,0,7,1004,-6.43024247977904,1,2.7493323024660423
1,19-May-2017,1,9,stim.wav,0,8,1199,0.6742848555803684,1,2.7493323024660423
1,19-May-2017,1,9,stim.wav,0,9,1416,8.742866600161166,1,2.7493323024660423
1,19-May-2017,1,9,stim.wav,0,10,1657,1.2545264683859723,1,2.7493323024660423
1,19-May-2017,1,9,stim.wav,0,11,1926,2.469285189547482,1,2.7493323024660423
1,19-May-2017,1,9,stim.wav,0,12,2226,3.458194421693046,1,2.7493323024660423
1,19-May-2017,1,9,stim.wav,0,13,2560,-7.240249779344893,1,2.7493323024660423
1,19-May-2017,1,9,stim.wav,0,14,2932,-1.0796382810805114,1,2.7493323024660423
1,19-May-2017,1,9,stim.wav,0,15,3346,-2.3619968503299926,1,2.7493323024660423
1,19-May-2017,1,9,stim.wav,0,16,3808,4.925797258499811,1,2.7493323024660423
1,19-May-2017,1,9,stim.wav,0,17,4322,4.9459545094014095,1,2.7493323024660423
1,19-May-2017,1,9,stim.wav,0,18,4895,2.0794471234116867,1,2.7493323024660423
1,19-May-2017,1,9,stim.wav,0,19,5534,-3.661925298337639,1,2.7493323024660423
1,19-May-2017,1,9,stim.wav,0,20,6245,7.16298250886518,1,2.7493323024660423
1,19-May-2017,1,9,stim.wav,0,21,7037,-6.46512127835423,1,2.7493323024660423
1,19-May-2017,1,9,stim.wav,0,22,7920,-4.8279164304381,1,2.7493323024660423
1,19-May-2017,1,9,stim.wav,0,23,8904,-0.4609365587394209,1,2.7493323024660423
1,19-May-2017,1,9,stim.wav,0,24,10000,-0.19250752436001053,1,2.7493323024660423
1,19-May-2017,1,9,stim.wav,1,0,100,-3.9108619702224052,0,2.7493323024660423
1,19-May-2017,1,9,stim.wav,1,1,191,3.729836520041769,0,2.7493323024660423
1,19-May-2017,1,9,stim.wav,1,2,293,0.7795765906599452,0,2.7493323024660423
1,19-May-2017,1,9,stim.wav,1,3,406,1.1349196617018384,0,2.7493323024660423
1,19-May-2017,1,9,stim.wav,1,4,533,2.455538050924008,0,2.7493323024660423
1,19-May-2017,1,9,stim.wav,1,5,673,-7.621724726333649,0,2.7493323024660423
1,19-May-2017,1,9,stim.wav,1,6,830,6.130884925050001,0,2.7493323024660423
1,19-May-2017,1,9,stim.wav,1,7,1004,-1.3572746154524584,0,2.7493323024660423
1,19-May-2017,1,9,stim.wav,1,8,1199,-5.3093200255399795,0,2.7493323024660423
1,19-May-2017,1,9,stim.wav,1,9,1416,4.99728940868073,0,2.7493323024660423
1,19-May-2017,1,9,stim.wav,1,10,1657,2.7327207351964744,0,2.7493323024660423
1,19-May-2017,1,9,stim.wav,1,11,1926,-6.1028189915682844,0,2.7493323024660423
1,19-May-2017,1,9,stim.wav,1,12,2226,1.324755954693014,0,2.7493323024660423
1,19-May-2017,1,9,stim.wav,1,13,2560,-3.921551804139791,0,2.7493323024660423
1,19-May-2017,1,9,stim.wav,1,14,2932,-4.3665318486445255,0,2.7493323024660423
1,19-May-2017,1,9,stim.wav,1,15,3346,-7.05589635359982,0,2.7493323024660423
1,19-May-2017,1,9,stim.wav,1,16,3808,-0.6163962508867089,0,2.7493323024660423
1,19-May-2017,1,9,stim.wav,1,17,4322,-0.9775599987542604,0,2.7493323024660423
1,19-May-2017,1,9,stim.wav,1,18,4895,1.0876599357179502,0,2.7493323024660423
1,19-May-2017,1,9,stim.wav,1,19,5534,5.594633804379798,0,2.7493323024660423
1,19-May-2017,1,9,stim.wav,1,20,6245,0.3866715275768074,0,2.7493323024660423
1,19-May-2017,1,9,stim.wav,1,21,7037,-6.89290702935933,0,2.7493323024660423
1,19-May-2017,1,9,stim.wav,1,22,7920,-1.3301347474410152,0,2.7493323024660423
1,19-May-2017,1,9,stim.wav,1,23,8904,-0.18258204322201338,0,2.7493323024660423
1,19-May-2017,1,9,stim.wav,1,24,10000,1.4382424398081093,0,2.7493323024660423
1,19-May-2017,1,10,stim.wav,0,0,100,-4.886521382336538,0,1.5481917344741294
1,19-May-2017,1,10,stim.wav,0,1,191,-1.326889552740069,0,1.5481917344741294
1,19-May-2017,1,10,stim.wav,0,2,293,1.0634086561272964,0,1.5481917344741294
1,19-May-2017,1,10,stim.wav,0,3,406,2.4921567583748923,0,1.5481917344741294
1,19-May-2017,1,10,stim.wav,0,4,533,-0.981946386042502,0,1.5481917344741294
1,19-May-2017,1,10,stim.wav,0,5,673,3.723371331658682,0,1.5481917344741294
1,19-May-2017,1,10,stim.wav,0,6,830,-2.8908038749111986,0,1.5481917344741294
1,19-May-2017,1,10,stim.wav,0,7,1004,4.222756221845842,0,1.5481917344741294
1,19-May-2017,1,10,stim.wav,0,8,1199,7.473684657616701,0,1.5481917344741294
1,19-May-2017,1,10,stim.wav,0,9,1416,1.2074815978597573,0,1.5481917344741294
1,19-May-2017,1,10,stim.wav,0,10,1657,-3.329865350762981,0,1.5481917344741294
1,19-May-2017,1,10,stim.wav,0,11,1926,-0.9878257721765167,0,1.5481917344741294
1,19-May-2017,1,10,stim.wav,0,12,2226,9.783884219834707,0,1.5481917344741294
1,19-May-2017,1,10,stim.wav,0,13,2560,-8.821898422301778,0,1.5481917344741294
1,19-May-2017,1,10,stim.wav,0,14,2932,-5.6256813270607,0,1.5481917344741294
1,19-May-2017,1,10,stim.wav,0,15,3346,-11.94313258801703,0,1.5481917344741294
1,19-May-2017,1,10,stim.wav,0,16,3808,3.1699575168926297,0,1.5481917344741294
1,19-May-2017,1,10,stim.wav,0,17,4322,1.545741558778948,0,1.5481917344741294
1,19-May-2017,1,10,stim.wav,0,18,4895,-1.825315600855496,0,1.5481917344741294
1,19-May-2017,1,10,stim.wav,0,19,5534,-0.29919886042265087,0,1.5481917344741294
1,19-May-2017,1,10,stim.wav,0,20,6245,-0.5087580853854115,0,1.5481917344741294
1,19-May-2017,1,10,stim.wav,0,21,7037,-0.1874827976729676,0,1.5481917344741294
1,19-May-2017,1,10,stim.wav,0,22,7920,-3.3113594782740496,0,1.5481917344741294
1,19-May-2017,1,10,stim.wav,0,23,8904,10.57970059723104,0,1.5481917344741294
1,19-May-2017,1,10,stim.wav,0,24,10000,-9.940215149622144,0,1.5481917344741294
1,19-May-2017,1,10,stim.wav,1,0,100,-7.91527551312555,1,1.5481917344741294
1,19-May-2017,1,10,stim.wav,1,1,191,0.985450507775877,1,1.5481917344741294
1,19-May-2017,1,10,stim.wav,1,2,293,-6.089095531988735,1,1.5481917344741294
1,19-May-2017,1,10,stim.wav,1,3,406,0.26025517928590713,1,1.5481917344741294
1,19-May-2017,1,10,stim.wav,1,4,533,0.6706385056611173,1,1.5481917344741294
1,19-May-2017,1,10,stim.wav,1,5,673,-0.11044311425702513,1,1.5481917344741294
1,19-May-2017,1,10,stim.wav,1,6,830,0.7060575855961118,1,1.5481917344741294
1,19-May-2017,1,10,stim.wav,1,7,1004,-1.2514870146908355,1,1.5481917344741294
1,19-May-2017,1,10,stim.wav,1,8,1199,-4.041259751141807,1,1.5481917344741294
1,19-May-2017,1,10,stim.wav,1,9,1416,6.574689695121519,1,1.5481917344741294
1,19-May-2017,1,10,stim.wav,1,10,1657,8.821458384025107,1,1.5481917344741294
1,19-May-2017,1,10,stim.wav,1,11,1926,3.848332202778402,1,1.5481917344741294
1,19-May-2017,1,10,stim.wav,1,12,2226,5.312415191643426,1,1.5481917344741294
1,19-May-2017,1,10,stim.wav,1,13,2560,3.1470008092206774,1,1.5481917344741294
1,19-May-2017,1,10,stim.wav,1,14,2932,3.6528060083088794,1,1.5481917344741294
1,19-May-2017,1,10,stim.wav,1,15,3346,3.604653338981396,1,1.5481917344741294
1,19-May-2017,1,10,stim.wav,1,16,3808,-7.812636232132157,1,1.5481917344741294
1,19-May-2017,1,10,stim.wav,1,17,4322,4.046639294858134,1,1.5481917344741294
1,19-May-2017,1,10,stim.wav,1,18,4895,1.7165168407560198,1,1.5481917344741294
1,19-May-2017,1,10,stim.wav,1,19,5534,-8.087361494493074,1,1.5481917344741294
1,19-May-2017,1,10,stim.wav,1,20,6245,-9.167453647057851,1,1.5481917344741294
1,19-May-2017,1,10,stim.wav,1,21,7037,2.515297892850867,1,1.5481917344741294
1,19-May-2017,1,10,stim.wav,1,22,7920,5.16244196090904,1,1.5481917344741294
1,19-May-2017,1,10,stim.wav,1,23,8904,10.579004889009285,1,1.5481917344741294
1,19-May-2017,1,10,stim.wav,1,24,10000,-4.595612938470649,1,1.5481917344741294
1,19-May-2017,1,11,stim.wav,0,0,100,-0.17490584811345436,0,3.4955566084694185
1,19-May-2017,1,11,stim.wav,0,1,191,1.3575731141451188,0,3.4955566084694185
1,19-May-2017,1,11,stim.wav,0,2,293,-0.10540780013672825,0,3.4955566084694185
1,19-May-2017,1,11,stim.wav,0,3,406,0.17686786492543297,0,3.4955566084694185
1,19-May-2017,1,11,stim.wav,0,4,533,9.662670812924482,0,3.4955566084694185
1,19-May-2017,1,11,stim.wav,0,5,673,1.5243141383496055,0,3.4955566084694185
1,19-May-2017,1,11,stim.wav,0,6,830,1.3533707577368637,0,3.4955566084694185
1,19-May-2017,1,11,stim.wav,0,7,1004,0.3674021863222077,0,3.4955566084694185
1,19-May-2017,1,11,stim.wav,0,8,1199,-6.945433337794002,0,3.4955566084694185
1,19-May-2017,1,11,stim.wav,0,9,1416,8.926305201768391,0,3.4955566084694185
1,19-May-2017,1,11,stim.wav,0,10,1657,-2.901454126920319,0,3.4955566084694185
1,19-May-2017,1,11,stim.wav,0,11,1926,-2.270567988863504,0,3.4955566084694185
1,19-May-2017,1,11,stim.wav,0,12,2226,4.719633115578573,0,3.4955566084694185
1,19-May-2017,1,11,stim.wav,0,13,2560,-1.8838210689101096,0,3.4955566084694185
1,19-May-2017,1,11,stim.wav,0,14,2932,7.64368380252593,0,3.4955566084694185
1,19-May-2017,1,11,stim.wav,0,15,3346,3.1746451111344705,0,3.4955566084694185
1,19-May-2017,1,11,stim.wav,0,16,3808,1.4431959757347506,0,3.4955566084694185
1,19-May-2017,1,11,stim.wav,0,17,4322,-5.783482611353248,0,3.4955566084694185
1,19-May-2017,1,11,stim.wav,0,18,4895,-3.23063442096293,0,3.4955566084694185
1,19-May-2017,1,11,stim.wav,0,19,5534,-1.7789791855808954,0,3.4955566084694185
1,19-May-2017,1,11,stim.wav,0,20,6245,-6.898967494232446,0,3.4955566084694185
1,19-May-2017,1,11,stim.wav,0,21,7037,-5.311981719601999,0,3.4955566084694185
1,19-May-2017,1,11,stim.wav,0,22,7920,9.141289899225256,0,3.4955566084694185
1,19-May-2017,1,11,stim.wav,0,23,8904,-0.39166765205163245,0,3.4955566084694185
1,19-May-2017,1,11,stim.wav,0,24,10000,-0.3807034512797992,0,3.4955566084694185
1,19-May-2017,1,11,stim.wav,1,0,100,-0.5392251310622461,1,3.4955566084694185
1,19-May-2017,1,11,stim.wav,1,1,191,1.993486708378997,1,3.4955566084694185
1,19-May-2017,1,11,stim.wav,1,2,293,-7.252397570688453,1,3.4955566084694185
1,19-May-2017,1,11,stim.wav,1,3,406,-4.108662658316973,1,3.4955566084694185
1,19-May-2017,1,11,stim.wav,1,4,533,3.76057410409346,1,3.4955566084694185
1,19-May-2017,1,11,stim.wav,1,5,673,4.6802846584921625,1,3.4955566084694185
1,19-May-2017,1,11,stim.wav,1,6,830,-5.309378041962997,1,3.4955566084694185
1,19-May-2017,1,11,stim.wav,1,7,1004,-5.3468000517021625,1,3.4955566084694185
1,19-May-2017,1,11,stim.wav,1,8,1199,-0.7120552962039246,1,3.4955566084694185
1,19-May-2017,1,11,stim.wav,1,9,1416,1.165655155560494,1,3.4955566084694185
1,19-May-2017,1,11,stim.wav,1,10,1657,-0.07412880346479177,1,3.4955566084694185
1,19-May-2017,1,11,stim.wav,1,11,1926,0.9931841209504101,1,3.4955566084694185
1,19-May-2017,1,11,stim.wav,1,12,2226,2.2731780501651455,1,3.4955566084694185
1,19-May-2017,1,11,stim.wav,1,13,2560,2.2161674398048277,1,3.4955566084694185
1,19-May-2017,1,11,stim.wav,1,14,2932,-6.085801865375073,1,3.4955566084694185
1,19-May-2017,1,11,stim.wav,1,15,3346,-3.4756634938768745,1,3.4955566084694185
1,19-May-2017,1,11,stim.wav,1,16,3808,-3.799171298137768,1,3.4955566084694185
1,19-May-2017,1,11,stim.wav,1,17,4322,-0.5622527309403398,1,3.4955566084694185
1,19-May-2017,1,11,stim.wav,1,18,4895,4.437226654019851,1,3.4955566084694185
1,19-May-2017,1,11,stim.wav,1,19,5534,-0.5735993775585112,1,3.4955566084694185
1,19-May-2017,1,11,stim.wav,1,20,6245,-3.8668514656148383,1,3.4955566084694185
1,19-May-2017,1,11,stim.wav,1,21,7037,1.047329559994928,1,3.4955566084694185
1,19-May-2017,1,11,stim.wav,1,22,7920,-1.4288705221035283,1,3.4955566084694185
1,19-May-2017,1,11,stim.wav,1,23,8904,1.4928184871878147,1,3.4955566084694185
1,19-May-2017,1,11,stim.wav,1,24,10000,-6.9407219499751625,1,3.4955566084694185
1,19-May-2017,1,12,stim.wav,0,0,100,7.681379812332811,0,2.1768752747506506
1,19-May-2017,1,12,stim.wav,0,1,191,-10.75508054357458,0,2.1768752747506506
1,19-May-2017,1,12,stim.wav,0,2,293,6.829086632608909,0,2.1768752747506506
1,19-May-2017,1,12,stim.wav,0,3,406,-0.6455055494053153,0,2.1768752747506506
1,19-May-2017,1,12,stim.wav,0,4,533,5.689206366669749,0,2.1768752747506506
1,19-May-2017,1,12,stim.wav,0,5,673,1.7062208927829592,0,2.1768752747506506
1,19-May-2017,1,12,stim.wav,0,6,830,9.845552578824135,0,2.1768752747506506
1,19-May-2017,1,12,stim.wav,0,7,1004,-4.7402401907356735,0,2.1768752747506506
1,19-May-2017,1,12,stim.wav,0,8,1199,1.692583664262782,0,2.1768752747506506
1,19-May-2017,1,12,stim.wav,0,9,1416,-4.798112604196359,0,2.1768752747506506
1,19-May-2017,1,12,stim.wav,0,10,1657,5.854863384671191,0,2.1768752747506506
1,19-May-2017,1,12,stim.wav,0,11,1926,-8.568591600064163,0,2.1768752747506506
1,19-May-2017,1,12,stim.wav,0,12,2226,-2.9685066853253255,0,2.1768752747506506
1,19-May-2017,1,12,stim.wav,0,13,2560,-2.7220175091512604,0,2.1768752747506506
1,19-May-2017,1,12,stim.wav,0,14,2932,-2.7731494549108513,0,2.1768752747506506
1,19-May-2017,1,12,stim.wav,0,15,3346,-4.7405166040190485,0,2.1768752747506506
1,19-May-2017,1,12,stim.wav,0,16,3808,-0.9495982685053167,0,2.1768752747506506
1,19-May-2017,1,12,stim.wav,0,17,4322,2.4127729571314847,0,2.1768752747506506
1,19-May-2017,1,12,stim.wav,0,18,4895,5.1095616279863965,0,2.1768752747506506
1,19-May-2017,1,12,stim.wav,0,19,5534,-1.9348695604711224,0,2.1768752747506506
1,19-May-2017,1,12,stim.wav,0,20,6245,-6.1133229171980386,0,2.1768752747506506
1,19-May-2017,1,12,stim.wav,0,21,7037,-8.814974544493763,0,2.1768752747506506
1,19-May-2017,1,12,stim.wav,0,22,7920,-3.2803868689584648,0,2.1768752747506506
1,19-May-2017,1,12,stim.wav,0,23,8904,-2.2097726233357733,0,2.1768752747506506
1,19-May-2017,1,12,stim.wav,0,24,10000,3.0561140937448172,0,2.1768752747506506
1,19-May-2017,1,12,stim.wav,1,0,100,3.5171562240140704,1,2.1768752747506506
1,19-May-2017,1,12,stim.wav,1,1,191,-12.248319181938134,1,2.1768752747506506
1,19-May-2017,1,12,stim.wav,1,2,293,-0.9985076919871381,1,2.1768752747506506
1,19-May-2017,1,12,stim.wav,1,3,406,-1.9849290014764138,1,2.1768752747506506
1,19-May-2017,1,12,stim.wav,1,4,533,-3.5887067142573104,1,2.1768752747506506
1,19-May-2017,1,12,stim.wav,1,5,673,2.6832379505692505,1,2.1768752747506506
1,19-May-2017,1,12,stim.wav,1,6,830,0.4920093369888037,1,2.1768752747506506
1,19-May-2017,1,12,stim.wav,1,7,1004,0.5411964430323444,1,2.1768752747506506
1,19-May-2017,1,12,stim.wav,1,8,1199,10.275478626074623,1,2.1768752747506506
1,19-May-2017,1,12,stim.wav,1,9,1416,-6.581836917416868,1,2.1768752747506506
1,19-May-2017,1,12,stim.wav,1,10,1657,-4.033325409156924,1,2.1768752747506506
1,19-May-2017,1,12,stim.wav,1,11,1926,1.422474629033788,1,2.1768752747506506
1,19-May-2017,1,12,stim.wav,1,12,2226,7.249635546860872,1,2.1768752747506506
1,19-May-2017,1,12,stim.wav,1,13,2560,3.4750476305786067,1,2.1768752747506506
1,19-May-2017,1,12,stim.wav,1,14,2932,5.826045544745978,1,2.1768752747506506
1,19-May-2017,1,12,stim.wav,1,15,3346,1.4409215956993058,1,2.1768752747506506
1,19-May-2017,1,12,stim.wav,1,16,3808,-1.774398788488565,1,2.1768752747506506
1,19-May-2017,1,12,stim.wav,1,17,4322,-5.873751655222335,1,2.1768752747506506
1,19-May-2017,1,12,stim.wav,1,18,4895,-3.9542166901980016,1,2.1768752747506506
1,19-May-2017,1,12,stim.wav,1,19,5534,11.036458170617252,1,2.1768752747506506
1,19-May-2017,1,12,stim.wav,1,20,6245,9.848465966089853,1,2.1768752747506506
1,19-May-2017,1,12,stim.wav,1,21,7037,0.3798914911382242,1,2.1768752747506506
1,19-May-2017,1,12,stim.wav,1,22,7920,3.6429860468065343,1,2.1768752747506506
1,19-May-2017,1,12,stim.wav,1,23,8904,-7.476499144771289,1,2.1768752747506506
1,19-May-2017,1,12,stim.wav,1,24,10000,-2.1507174147205235,1,2.1768752747506506
1,19-May-2017,1,13,stim.wav,0,0,100,-2.368896191028219,0,3.642528749394907
1,19-May-2017,1,13,stim.wav,0,1,191,-10.074975097064893,0,3.642528749394907
1,19-May-2017,1,13,stim.wav,0,2,293,-0.525554399672566,0,3.642528749394907
1,19-May-2017,1,13,stim.wav,0,3,406,2.6632763791159513,0,3.642528749394907
1,19-May-2017,1,13,stim.wav,0,4,533,2.9056413101420064,0,3.642528749394907
1,19-May-2017,1,13,stim.wav,0,5,673,6.705396998045687,0,3.642528749394907
1,19-May-2017,1,13,stim.wav,0,6,830,-6.205602072341417,0,3.642528749394907
1,19-May-2017,1,13,stim.wav,0,7,1004,8.370446374536481,0,3.642528749394907
1,19-May-2017,1,13,stim.wav,0,8,1199,-7.172427915513273,0,3.642528749394907
1,19-May-2017,1,13,stim.wav,0,9,1416,-5.699442856051848,0,3.642528749394907
1,19-May-2017,1,13,stim.wav,0,10,1657,-0.055709418236909135,0,3.642528749394907
1,19-May-2017,1,13,stim.wav,0,11,1926,-8.00269807625876,0,3.642528749394907
1,19-May-2017,1,13,stim.wav,0,12,2226,-4.176361190387985,0,3.642528749394907
1,19-May-2017,1,13,stim.wav,0,13,2560,-1.3796416308315202,0,3.642528749394907
1,19-May-2017,1,13,stim.wav,0,14,2932,1.0854771148313105,0,3.642528749394907
1,19-May-2017,1,13,stim.wav,0,15,3346,5.7450337194194265,0,3.642528749394907
1,19-May-2017,1,13,stim.wav,0,16,3808,2.2581489703742106,0,3.642528749394907
1,19-May-2017,1,13,stim.wav,0,17,4322,5.346697005518215,0,3.642528749394907
1,19-May-2017,1,13,stim.wav,0,18,4895,10.070753612844063,0,3.642528749394907
1,19-May-2017,1,13,stim.wav,0,19,5534,5.402775587040498,0,3.642528749394907
1,19-May-2017,1,13,stim.wav,0,20,6245,9.652355839952577,0,3.642528749394907
1,19-May-2017,1,13,stim.wav,0,21,7037,2.61667771497222,0,3.642528749394907
1,19-May-2017,1,13,stim.wav,0,22,7920,1.7478322594716604,0,3.642528749394907
1,19-May-2017,1,13,stim.wav,0,23,8904,5.804019921643949,0,3.642528749394907
1,19-May-2017,1,13,stim.wav,0,24,10000,1.7371783457592316,0,3.642528749394907
1,19-May-2017,1,13,stim.wav,1,0,100,6.04518011366876,1,3.642528749394907
1,19-May-2017,1,13,stim.wav,1,1,191,-6.764870002063753,1,3.642528749394907
1,19-May-2017,1,13,stim.wav,1,2,293,1.4589451331939962,1,3.642528749394907
1,19-May-2017,1,13,stim.wav,1,3,406,-5.50576918824116,1,3.642528749394907
1,19-May-2017,1,13,stim.wav,1,4,533,0.34160453453120476,1,3.642528749394907
1,19-May-2017,1,13,stim.wav,1,5,673,-0.4613014763226269,1,3.642528749394907
1,19-May-2017,1,13,stim.wav,1,6,830,-7.519123981180261,1,3.642528749394907
1,19-May-2017,1,13,stim.wav,1,7,1004,2.7177877471174594,1,3.642528749394907
1,19-May-2017,1,13,stim.wav,1,8,1199,1.1408199621880206,1,3.642528749394907
1,19-May-2017,1,13,stim.wav,1,9,1416,-1.2931549500775705,1,3.642528749394907
1,19-May-2017,1,13,stim.wav,1,10,1657,3.464664284440996,1,3.642528749394907
1,19-May-2017,1,13,stim.wav,1,11,1926,-3.315509119415985,1,3.642528749394907
1,19-May-2017,1,13,stim.wav,1,12,2226,-0.49395991135486067,1,3.642528749394907
1,19-May-2017,1,13,stim.wav,1,13,2560,0.08174685596560184,1,3.642528749394907
1,19-May-2017,1,13,stim.wav,1,14,2932,0.3399632814073094,1,3.642528749394907
1,19-May-2017,1,13,stim.wav,1,15,3346,2.2269663408695304,1,3.642528749394907
1,19-May-2017,1,13,stim.wav,1,16,3808,4.985855206913868,1,3.642528749394907
1,19-May-2017,1,13,stim.wav,1,17,4322,-10.75697529797965,1,3.642528749394907
1,19-May-2017,1,13,stim.wav,1,18,4895,1.5478958618525362,1,3.642528749394907
1,19-May-2017,1,13,stim.wav,1,19,5534,-0.9896862679558511,1,3.642528749394907
1,19-May-2017,1,13,stim.wav,1,20,6245,6.166513258029061,1,3.642528749394907
1,19-May-2017,1,13,stim.wav,1,21,7037,-3.618649373568851,1,3.642528749394907
1,19-May-2017,1,13,stim.wav,1,22,7920,3.1892344686624385,1,3.642528749394907
1,19-May-2017,1,13,stim.wav,1,23,8904,-1.3383797327078117,1,3.642528749394907
1,19-May-2017,1,13,stim.wav,1,24,10000,3.165592405754292,1,3.642528749394907
1,19-May-2017,1,14,stim.wav,0,0,100,-10.874600863249771,1,2.1831682406208466
1,19-May-2017,1,14,stim.wav,0,1,191,11.951964790994547,1,2.1831682406208466
1,19-May-2017,1,14,stim.wav,0,2,293,-4.568925957170626,1,2.1831682406208466
1,19-May-2017,1,14,stim.wav,0,3,406,-2.813405076946065,1,2.1831682406208466
1,19-May-2017,1,14,stim.wav,0,4,533,1.5599128094530244,1,2.1831682406208466
1,19-May-2017,1,14,stim.wav,0,5,673,-2.708637586665415,1,2.1831682406208466
1,19-May-2017,1,14,stim.wav,0,6,830,0.0955994913926464,1,2.1831682406208466
1,19-May-2017,1,14,stim.wav,0,7,1004,2.195046437166949,1,2.1831682406208466
1,19-May-2017,1,14,stim.wav,0,8,1199,1.861347580077253,1,2.1831682406208466
1,19-May-2017,1,14,stim.wav,0,9,1416,3.957135941193389,1,2.1831682406208466
1,19-May-2017,1,14,stim.wav,0,10,1657,-2.970792022565581,1,2.1831682406208466
1,19-May-2017,1,14,stim.wav,0,11,1926,-9.327889457037454,1,2.1831682406208466
1,19-May-2017,1,14,stim.wav,0,12,2226,-1.6364256018057977,1,2.1831682406208466
1,19-May-2017,1,14,stim.wav,0,13,2560,-2.9562236800011603,1,2.1831682406208466
1,19-May-2017,1,14,stim.wav,0,14,2932,-4.032722297079193,1,2.1831682406208466
1,19-May-2017,1,14,stim.wav,0,15,3346,7.192593752068635,1,2.1831682406208466
1,19-May-2017,1,14,stim.wav,0,16,3808,7.375562330365712,1,2.1831682406208466
1,19-May-2017,1,14,stim.wav,0,17,4322,1.8240392506908896,1,2.1831682406208466
1,19-May-2017,1,14,stim.wav,0,18,4895,-6.62525509246509,1,2.1831682406208466
1,19-May-2017,1,14,stim.wav,0,19,5534,7.6286094762573455,1,2.1831682406208466
1,19-May-2017,1,14,stim.wav,0,20,6245,-3.6211329350897223,1,2.1831682406208466
1,19-May-2017,1,14,stim.wav,0,21,7037,2.4115979540153285,1,2.1831682406208466
1,19-May-2017,1,14,stim.wav,0,22,7920,-5.23972487067044,1,2.1831682406208466
1,19-May-2017,1,14,stim.wav,0,23,8904,-7.799579286699856,1,2.1831682406208466
1,19-May-2017,1,14,stim.wav,0,24,10000,-2.062493505711057,1,2.1831682406208466
1,19-May-2017,1,14,stim.wav,1,0,100,-1.0846728547792033,0,2.1831682406208466
1,19-May-2017,1,14,stim.wav,1,1,191,-4.827161818914753,0,2.1831682406208466
1,19-May-2017,1,14,stim.wav,1,2,293,-0.9000034225748301,0,2.1831682406208466
1,19-May-2017,1,14,stim.wav,1,3,406,-6.287752456775318,0,2.1831682406208466
1,19-May-2017,1,14,stim.wav,1,4,533,-0.3288295922268744,0,2.1831682406208466
1,19-May-2017,1,14,stim.wav,1,5,673,1.4302265663841656,0,2.1831682406208466
1,19-May-2017,1,14,stim.wav,1,6,830,-0.47140804207600856,0,2.1831682406208466
1,19-May-2017,1,14,stim.wav,1,7,1004,11.366656054502256,0,2.1831682406208466
1,19-May-2017,1,14,stim.wav,1,8,1199,3.58533750003833,0,2.1831682406208466
1,19-May-2017,1,14,stim.wav,1,9,1416,2.551401374552963,0,2.1831682406208466
1,19-May-2017,1,14,stim.wav,1,10,1657,3.0335388552655616,0,2.1831682406208466
1,19-May-2017,1,14,stim.wav,1,11,1926,-8.827651538552992,0,2.1831682406208466
1,19-May-2017,1,14,stim.wav,1,12,2226,-1.1196847184734213,0,2.1831682406208466
1,19-May-2017,1,14,stim.wav,1,13,2560,2.270736059057264,0,2.1831682406208466
1,19-May-2017,1,14,stim.wav,1,14,2932,-1.6277696842368288,0,2.1831682406208466
1,19-May-2017,1,14,stim.wav,1,15,3346,-4.849874775824923,0,2.1831682406208466
1,19-May-2017,1,14,stim.wav,1,16,3808,-0.18031033345702252,0,2.1831682406208466
1,19-May-2017,1,14,stim.wav,1,17,4322,-0.6774809763913718,0,2.1831682406208466
1,19-May-2017,1,14,stim.wav,1,18,4895,-6.838451909349038,0,2.1831682406208466
1,19-May-2017,1,14,stim.wav,1,19,5534,2.9911414874938513,0,2.1831682406208466
1,19-May-2017,1,14,stim.wav,1,20,6245,7.256397654609995,0,2.1831682406208466
1,19-May-2017,1,14,stim.wav,1,21,7037,-7.205913310056166,0,2.1831682406208466
1,19-May-2017,1,14,stim.wav,1,22,7920,-2.6299684228095774,0,2.1831682406208466
1,19-May-2017,1,14,stim.wav,1,23,8904,-4.985415386446848,0,2.1831682406208466
1,19-May-2017,1,14,stim.wav,1,24,10000,0.46869621293317676,0,2.1831682406208466
1,19-May-2017,1,15,stim.wav,0,0,100,9.78885749949142,1,2.9274890912232028
1,19-May-2017,1,15,stim.wav,0,1,191,1.76016012445387,1,2.9274890912232028
1,19-May-2017,1,15,stim.wav,0,2,293,-3.4841197386017764,1,2.9274890912232028
1,19-May-2017,1,15,stim.wav,0,3,406,-6.143869660605282,1,2.9274890912232028
1,19-May-2017,1,15,stim.wav,0,4,533,-4.4893861140716655,1,2.9274890912232028
1,19-May-2017,1,15,stim.wav,0,5,673,4.471568952834746,1,2.9274890912232028
1,19-May-2017,1,15,stim.wav,0,6,830,6.17760371626953,1,2.9274890912232028
1,19-May-2017,1,15,stim.wav,0,7,1004,-1.8719735780241873,1,2.9274890912232028
1,19-May-2017,1,15,stim.wav,0,8,1199,-1.862150950357805,1,2.9274890912232028
1,19-May-2017,1,15,stim.wav,0,9,1416,-0.3855975749416357,1,2.9274890912232028
1,19-May-2017,1,15,stim.wav,0,10,1657,-0.6717818776788602,1,2.9274890912232028
1,19-May-2017,1,15,stim.wav,0,11,1926,0.6459456380406253,1,2.9274890912232028
1,19-May-2017,1,15,stim.wav,0,12,2226,0.3189568897531835,1,2.9274890912232028
1,19-May-2017,1,15,stim.wav,0,13,2560,-2.388993821210606,1,2.9274890912232028
1,19-May-2017,1,15,stim.wav,0,14,2932,1.558762565170369,1,2.9274890912232028
1,19-May-2017,1,15,stim.wav,0,15,3346,0.39276488713475194,1,2.9274890912232028
1,19-May-2017,1,15,stim.wav,0,16,3808,3.558903001274294,1,2.9274890912232028
1,19-May-2017,1,15,stim.wav,0,17,4322,3.992213991245224,1,2.9274890912232028
1,19-May-2017,1,15,stim.wav,0,18,4895,-8.398575924057116,1,2.9274890912232028
1,19-May-2017,1,15,stim.wav,0,19,5534,-5.043606755344107,1,2.9274890912232028
1,19-May-2017,1,15,stim.wav,0,20,6245,-2.843804426902751,1,2.9274890912232028
1,19-May-2017,1,15,stim.wav,0,21,7037,1.7331295908434345,1,2.9274890912232028
1,19-May-2017,1,15,stim.wav,0,22,7920,-4.990590607759297,1,2.9274890912232028
1,19-May-2017,1,15,stim.wav,0,23,8904,-0.9553160242457892,1,2.9274890912232028
1,19-May-2017,1,15,stim.wav,0,24,10000,5.9475853273078405,1,2.9274890912232028
1,19-May-2017,1,15,stim.wav,1,0,100,8.057171029431291,0,2.9274890912232028
1,19-May-2017,1,15,stim.wav,1,1,191,-8.246063689431216,0,2.9274890912232028
1,19-May-2017,1,15,stim.wav,1,2,293,0.927871334127809,0,2.9274890912232028
1,19-May-2017,1,15,stim.wav,1,3,406,2.736140187492202,0,2.9274890912232028
1,19-May-2017,1,15,stim.wav,1,4,533,1.3080393294862172,0,2.9274890912232028
1,19-May-2017,1,15,stim.wav,1,5,673,-1.4006038356205175,0,2.9274890912232028
1,19-May-2017,1,15,stim.wav,1,6,830,1.3374216183000756,0,2.9274890912232028
1,19-May-2017,1,15,stim.wav,1,7,1004,7.100634178585538,0,2.9274890912232028
1,19-May-2017,1,15,stim.wav,1,8,1199,0.09569813702961076,0,2.9274890912232028
1,19-May-2017,1,15,stim.wav,1,9,1416,8.494173562022471,0,2.9274890912232028
1,19-May-2017,1,15,stim.wav,1,10,1657,1.1391026241272932,0,2.9274890912232028
1,19-May-2017,1,15,stim.wav,1,11,1926,-1.3584359432707567,0,2.9274890912232028
1,19-May-2017,1,15,stim.wav,1,12,2226,0.4761897787574032,0,2.9274890912232028
1,19-May-2017,1,15,stim.wav,1,13,2560,4.41342714157127,0,2.9274890912232028
1,19-May-2017,1,15,stim.wav,1,14,2932,0.553770037821829,0,2.9274890912232028
1,19-May-2017,1,15,stim.wav,1,15,3346,-8.349956967274581,0,2.9274890912232028
1,19-May-2017,1,15,stim.wav,1,16,3808,-2.8340285788860298,0,2.9274890912232028
1,19-May-2017,1,15,stim.wav,1,17,4322,-3.3825190193843335,0,2.9274890912232028
1,19-May-2017,1,15,stim.wav,1,18,4895,2.2881870885954196,0,2.9274890912232028
1,19-May-2017,1,15,stim.wav,1,19,5534,-5.207973793708084,0,2.9274890912232028
1,19-May-2017,1,15,stim.wav,1,20,6245,-4.729882036362813,0,2.9274890912232028
1,19-May-2017,1,15,stim.wav,1,21,7037,-0.5536051149856698,0,2.9274890912232028
1,19-May-2017,1,15,stim.wav,1,22,7920,-2.0651731638221906,0,2.9274890912232028
1,19-May-2017,1,15,stim.wav,1,23,8904,3.576952348998441,0,2.9274890912232028
1,19-May-2017,1,15,stim.wav,1,24,10000,-12.382922852570148,0,2.9274890912232028
1,19-May-2017,1,16,stim.wav,0,0,100,2.7187093567142546,0,3.5411824070637214
1,19-May-2017,1,16,stim.wav,0,1,191,2.3770128774044412,0,3.5411824070637214
1,19-May-2017,1,16,stim.wav,0,2,293,-0.11693536053226672,0,3.5411824070637214
1,19-May-2017,1,16,stim.wav,0,3,406,-5.677456219994332,0,3.5411824070637214
1,19-May-2017,1,16,stim.wav,0,4,533,-4.020018542745443,0,3.5411824070637214
1,19-May-2017,1,16,stim.wav,0,5,673,2.8485330185194266,0,3.5411824070637214
1,19-May-2017,1,16,stim.wav,0,6,830,-2.0498068500068007,0,3.5411824070637214
1,19-May-2017,1,16,stim.wav,0,7,1004,3.3979224096655924,0,3.5411824070637214
1,19-May-2017,1,16,stim.wav,0,8,1199,-7.795116012164178,0,3.5411824070637214
1,19-May-2017,1,16,stim.wav,0,9,1416,7.927292854392246,0,3.5411824070637214
1,19-May-2017,1,16,stim.wav,0,10,1657,-5.44194538148807,0,3.5411824070637214
1,19-May-2017,1,16,stim.wav,0,11,1926,-4.301480958414255,0,3.5411824070637214
1,19-May-2017,1,16,stim.wav,0,12,2226,1.8381995437794894,0,3.5411824070637214
1,19-May-2017,1,16,stim.wav,0,13,2560,6.237058659862989,0,3.5411824070637214
1,19-May-2017,1,16,stim.wav,0,14,2932,-4.373670185496465,0,3.5411824070637214
1,19-May-2017,1,16,stim.wav,0,15,3346,-3.848042309784475,0,3.5411824070637214
1,19-May-2017,1,16,stim.wav,0,16,3808,-3.8091682729738467,0,3.5411824070637214
1,19-May-2017,1,16,stim.wav,0,17,4322,-0.7032352623467618,0,3.5411824070637214
1,19-May-2017,1,16,stim.wav,0,18,4895,-1.4323043329558074,0,3.5411824070637214
1,19-May-2017,1,16,stim.wav,0,19,5534,1.3850113309146106,0,3.5411824070637214
1,19-May-2017,1,16,stim.wav,0,20,6245,-1.4758621050665295,0,3.5411824070637214
1,19-May-2017,1,16,stim.wav,0,21,7037,-3.1885308655810785,0,3.5411824070637214
1,19-May-2017,1,16,stim.wav,0,22,7920,-0.1506824928622878,0,3.5411824070637214
1,19-May-2017,1,16,stim.wav,0,23,8904,-2.07782817702424,0,3.5411824070637214
1,19-May-2017,1,16,stim.wav,0,24,10000,1.8204275231491942,0,3.5411824070637214
1,19-May-2017,1,16,stim.wav,1,0,100,2.8218612647886507,1,3.5411824070637214
1,19-May-2017,1,16,stim.wav,1,1,191,-0.30908622472604913,1,3.5411824070637214
1,19-May-2017,1,16,stim.wav,1,2,293,2.933930311948212,1,3.5411824070637214
1,19-May-2017,1,16,stim.wav,1,3,406,10.94189140811611,1,3.5411824070637214
1,19-May-2017,1,16,stim.wav,1,4,533,-4.000866000612742,1,3.5411824070637214
1,19-May-2017,1,16,stim.wav,1,5,673,7.506155450174089,1,3.5411824070637214
1,19-May-2017,1,16,stim.wav,1,6,830,2.9452452433592997,1,3.5411824070637214
1,19-May-2017,1,16,stim.wav,1,7,1004,10.124567391760326,1,3.5411824070637214
1,19-May-2017,1,16,stim.wav,1,8,1199,0.9839048046901777,1,3.5411824070637214
1,19-May-2017,1,16,stim.wav,1,9,1416,9.832600645264547,1,3.5411824070637214
1,19-May-2017,1,16,stim.wav,1,10,1657,-4.523099948322687,1,3.5411824070637214
1,19-May-2017,1,16,stim.wav,1,11,1926,1.7179236759090608,1,3.5411824070637214
1,19-May-2017,1,16,stim.wav,1,12,2226,-0.4337893821439903,1,3.5411824070637214
1,19-May-2017,1,16,stim.wav,1,13,2560,0.5047255965561019,1,3.5411824070637214
1,19-May-2017,1,16,stim.wav,1,14,2932,-3.9739931820218706,1,3.5411824070637214
1,19-May-2017,1,16,stim.wav,1,15,3346,-2.41034079839392,1,3.5411824070637214
1,19-May-2017,1,16,stim.wav,1,16,3808,-5.520688921811917,1,3.5411824070637214
1,19-May-2017,1,16,stim.wav,1,17,4322,-3.4240747858457037,1,3.5411824070637214
1,19-May-2017,1,16,stim.wav,1,18,4895,-3.776225665447005,1,3.5411824070637214
1,19-May-2017,1,16,stim.wav,1,19,5534,-5.294913112491883,1,3.5411824070637214
1,19-May-2017,1,16,stim.wav,1,20,6245,-0.12913279411572187,1,3.5411824070637214
1,19-May-2017,1,16,stim.wav,1,21,7037,-5.103655967700499,1,3.5411824070637214
1,19-May-2017,1,16,stim.wav,1,22,7920,-3.313828552706768,1,3.5411824070637214
1,19-May-2017,1,16,stim.wav,1,23,8904,-0.2206746543189325,1,3.5411824070637214
1,19-May-2017,1,16,stim.wav,1,24,10000,4.609626774393572,1,3.5411824070637214
1,19-May-2017,1,17,stim.wav,0,0,100,1.1458911542691708,0,3.9189748572151872
1,19-May-2017,1,17,stim.wav,0,1,191,-12.38132904045589,0,3.9189748572151872
1,19-May-2017,1,17,stim.wav,0,2,293,-8.181068692551463,0,3.9189748572151872
1,19-May-2017,1,17,stim.wav,0,3,406,0.595996360526813,0,3.9189748572151872
1,19-May-2017,1,17,stim.wav,0,4,533,6.376122546394127,0,3.9189748572151872
1,19-May-2017,1,17,stim.wav,0,5,673,0.2555578081486497,0,3.9189748572151872
1,19-May-2017,1,17,stim.wav,0,6,830,6.707763064219509,0,3.9189748572151872
1,19-May-2017,1,17,stim.wav,0,7,1004,5.414941747888964,0,3.9189748572151872
1,19-May-2017,1,17,stim.wav,0,8,1199,-2.828492426127917,0,3.9189748572151872
1,19-May-2017,1,17,stim.wav,0,9,1416,-1.5428707848894696,0,3.9189748572151872
1,19-May-2017,1,17,stim.wav,0,10,1657,-1.4325782588573883,0,3.9189748572151872
1,19-May-2017,1,17,stim.wav,0,11,1926,-1.376277477105809,0,3.9189748572151872
1,19-May-2017,1,17,stim.wav,0,12,2226,2.8970922742999603,0,3.9189748572151872
1,19-May-2017,1,17,stim.wav,0,13,2560,-4.518893085648362,0,3.9189748572151872
1,19-May-2017,1,17,stim.wav,0,14,2932,-1.9138151106612844,0,3.9189748572151872
1,19-May-2017,1,17,stim.wav,0,15,3346,-5.261585352336534,0,3.9189748572151872
1,19-May-2017,1,17,stim.wav,0,16,3808,-5.8855376434576225,0,3.9189748572151872
1,19-May-2017,1,17,stim.wav,0,17,4322,-6.413811687828694,0,3.9189748572151872
1,19-May-2017,1,17,stim.wav,0,18,4895,-2.4789788490848133,0,3.9189748572151872
1,19-May-2017,1,17,stim.wav,0,19,5534,3.6653013364304328,0,3.9189748572151872
1,19-May-2017,1,17,stim.wav,0,20,6245,6.558124720911032,0,3.9189748572151872
1,19-May-2017,1,17,stim.wav,0,21,7037,-9.19197118574356,0,3.9189748572151872
1,19-May-2017,1,17,stim.wav,0,22,7920,1.0734730376556185,0,3.9189748572151872
1,19-May-2017,1,17,stim.wav,0,23,8904,11.32004178824146,0,3.9189748572151872
1,19-May-2017,1,17,stim.wav,0,24,10000,-8.973689849240646,0,3.9189748572151872
1,19-May-2017,1,17,stim.wav,1,0,100,8.996577377797081,1,3.9189748572151872
1,19-May-2017,1,17,stim.wav,1,1,191,1.0561259353806038,1,3.9189748572151872
1,19-May-2017,1,17,stim.wav,1,2,293,4.261631415332488,1,3.9189748572151872
1,19-May-2017,1,17,stim.wav,1,3,406,-11.121625594731817,1,3.9189748572151872
1,19-May-2017,1,17,stim.wav,1,4,533,-4.044046213915659,1,3.9189748572151872
1,19-May-2017,1,17,stim.wav,1,5,673,-0.7609246693517914,1,3.9189748572151872
1,19-May-2017,1,17,stim.wav,1,6,830,-2.5279157237241328,1,3.9189748572151872
1,19-May-2017,1,17,stim.wav,1,7,1004,-0.5958457559212073,1,3.9189748572151872
1,19-May-2017,1,17,stim.wav,1,8,1199,-11.244557570531699,1,3.9189748572151872
1,19-May-2017,1,17,stim.wav,1,9,1416,6.14967754085092,1,3.9189748572151872
1,19-May-2017,1,17,stim.wav,1,10,1657,0.8593587841334659,1,3.9189748572151872
1,19-May-2017,1,17,stim.wav,1,11,1926,10.018349975568881,1,3.9189748572151872
1,19-May-2017,1,17,stim.wav,1,12,2226,2.428707560289791,1,3.9189748572151872
1,19-May-2017,1,17,stim.wav,1,13,2560,0.9711723881353456,1,3.9189748572151872
1,19-May-2017,1,17,stim.wav,1,14,2932,0.39861916884935145,1,3.9189748572151872
1,19-May-2017,1,17,stim.wav,1,15,3346,3.8926211527857513,1,3.9189748572151872
1,19-May-2017,1,17,stim.wav,1,16,3808,-4.510845529415345,1,3.9189748572151872
1,19-May-2017,1,17,stim.wav,1,17,4322,-0.28075305300910053,1,3.9189748572151872
1,19-May-2017,1,17,stim.wav,1,18,4895,3.418851773728137,1,3.9189748572151872
1,19-May-2017,1,17,stim.wav,1,19,5534,-0.16569564498736977,1,3.9189748572151872
1,19-May-2017,1,17,stim.wav,1,20,6245,-4.645567762697032,1,3.9189748572151872
1,19-May-2017,1,17,stim.wav,1,21,7037,-0.294765434460263,1,3.9189748572151872
1,19-May-2017,1,17,stim.wav,1,22,7920,-3.1461456252132267,1,3.9189748572151872
1,19-May-2017,1,17,stim.wav,1,23,8904,-6.403204984084429,1,3.9189748572151872
1,19-May-2017,1,17,stim.wav,1,24,10000,-1.8021843364178793,1,3.9189748572151872
1,19-May-2017,1,18,stim.wav,0,0,100,-0.23053934925931827,1,4.4623624536238005
1,19-May-2017,1,18,stim.wav,0,1,191,3.3795338383627826,1,4.4623624536238005
1,19-May-2017,1,18,stim.wav,0,2,293,10.031433978961683,1,4.4623624536238005
1,19-May-2017,1,18,stim.wav,0,3,406,3.8088394233567087,1,4.4623624536238005
1,19-May-2017,1,18,stim.wav,0,4,533,2.9505678073177095,1,4.4623624536238005
1,19-May-2017,1,18,stim.wav,0,5,673,-7.072322799214357,1,4.4623624536238005
1,19-May-2017,1,18,stim.wav,0,6,830,6.021857420458082,1,4.4623624536238005
1,19-May-2017,1,18,stim.wav,0,7,1004,-2.382200430400114,1,4.4623624536238005
1,19-May-2017,1,18,stim.wav,0,8,1199,6.839352256626626,1,4.4623624536238005
1,19-May-2017,1,18,stim.wav,0,9,1416,-3.206139477515824,1,4.4623624536238005
1,19-May-2017,1,18,stim.wav,0,10,1657,1.7332215386273182,1,4.4623624536238005
1,19-May-2017,1,18,stim.wav,0,11,1926,-3.184972984642336,1,4.4623624536238005
1,19-May-2017,1,18,stim.wav,0,12,2226,-2.538129861955828,1,4.4623624536238005
1,19-May-2017,1,18,stim.wav,0,13,2560,0.1996870335997601,1,4.4623624536238005
1,19-May-2017,1,18,stim.wav,0,14,2932,-0.34324117082743755,1,4.4623624536238005
1,19-May-2017,1,18,stim.wav,0,15,3346,-1.4074436517305469,1,4.4623624536238005
1,19-May-2017,1,18,stim.wav,0,16,3808,-7.894913640818223,1,4.4623624536238005
1,19-May-2017,1,18,stim.wav,0,17,4322,2.266637462384519,1,4.4623624536238005
1,19-May-2017,1,18,stim.wav,0,18,4895,0.6250294786576953,1,4.4623624536238005
1,19-May-2017,1,18,stim.wav,0,19,5534,-2.1010710529414904,1,4.4623624536238005
1,19-May-2017,1,18,stim.wav,0,20,6245,6.559056027401121,1,4.4623624536238005
1,19-May-2017,1,18,stim.wav,0,21,7037,10.26515110090598,1,4.4623624536238005
1,19-May-2017,1,18,stim.wav,0,22,7920,-2.751020806411433,1,4.4623624536238005
1,19-May-2017,1,18,stim.wav,0,23,8904,-3.0979489293444296,1,4.4623624536238005
1,19-May-2017,1,18,stim.wav,0,24,10000,-0.022792839247907086,1,4.4623624536238005
1,19-May-2017,1,18,stim.wav,1,0,100,0.051702753902175824,0,4.4623624536238005
1,19-May-2017,1,18,stim.wav,1,1,191,-4.1061259274258815,0,4.4623624536238005
1,19-May-2017,1,18,stim.wav,1,2,293,2.288861004727487,0,4.4623624536238005
1,19-May-2017,1,18,stim.wav,1,3,406,-1.2397704993097596,0,4.4623624536238005
1,19-May-2017,1,18,stim.wav,1,4,533,4.077006688564436,0,4.4623624536238005
1,19-May-2017,1,18,stim.wav,1,5,673,-2.8264567128689455,0,4.4623624536238005
1,19-May-2017,1,18,stim.wav,1,6,830,1.272699109319802,0,4.4623624536238005
1,19-May-2017,1,18,stim.wav,1,7,1004,2.0225008838177576,0,4.4623624536238005
1,19-May-2017,1,18,stim.wav,1,8,1199,2.515332554244409,0,4.4623624536238005
1,19-May-2017,1,18,stim.wav,1,9,1416,-6.899036611889228,0,4.4623624536238005
1,19-May-2017,1,18,stim.wav,1,10,1657,0.0091427065477474,0,4.4623624536238005
1,19-May-2017,1,18,stim.wav,1,11,1926,1.9255900337381293,0,4.4623624536238005
1,19-May-2017,1,18,stim.wav,1,12,2226,-0.1549399040449756,0,4.4623624536238005
1,19-May-2017,1,18,stim.wav,1,13,2560,8.161355195152922,0,4.4623624536238005
1,19-May-2017,1,18,stim.wav,1,14,2932,3.404401635031842,0,4.4623624536238005
1,19-May-2017,1,18,stim.wav,1,15,3346,0.04867669267971447,0,4.4623624536238005
1,19-May-2017,1,18,stim.wav,1,16,3808,-0.08927167730905683,0,4.4623624536238005
1,19-May-2017,1,18,stim.wav,1,17,4322,3.272972953390622,0,4.4623624536238005
1,19-May-2017,1,18,stim.wav,1,18,4895,5.907709236854858,0,4.4623624536238005
1,19-May-2017,1,18,stim.wav,1,19,5534,2.207048798534939,0,4.4623624536238005
1,19-May-2017,1,18,stim.wav,1,20,6245,-6.031901130317586,0,4.4623624536238005
1,19-May-2017,1,18,stim.wav,1,21,7037,-2.41566677743437,0,4.4623624536238005
1,19-May-2017,1,18,stim.wav,1,22,7920,3.5634953450305833,0,4.4623624536238005
1,19-May-2017,1,18,stim.wav,1,23,8904,0.6752413975787653,0,4.4623624536238005
1,19-May-2017,1,18,stim.wav,1,24,10000,6.3698597907682455,0,4.4623624536238005
1,19-May-2017,1,19,stim.wav,0,0,100,-0.3216260399519894,0,2.8357541039408436
1,19-May-2017,1,19,stim.wav,0,1,191,-8.538861920222455,0,2.8357541039408436
1,19-May-2017,1,19,stim.wav,0,2,293,-2.0948331977354178,0,2.8357541039408436
1,19-May-2017,1,19,stim.wav,0,3,406,2.9241512404071743,0,2.8357541039408436
1,19-May-2017,1,19,stim.wav,0,4,533,-0.44035577170967966,0,2.8357541039408436
1,19-May-2017,1,19,stim.wav,0,5,673,-6.035612081769082,0,2.8357541039408436
1,19-May-2017,1,19,stim.wav,0,6,830,0.12067870874694542,0,2.8357541039408436
1,19-May-2017,1,19,stim.wav,0,7,1004,10.29597071352155,0,2.8357541039408436
1,19-May-2017,1,19,stim.wav,0,8,1199,2.6725321781144102,0,2.8357541039408436
1,19-May-2017,1,19,stim.wav,0,9,1416,-0.11955835293218883,0,2.8357541039408436
1,19-May-2017,1,19,stim.wav,0,10,1657,2.8524208951791223,0,2.8357541039408436
1,19-May-2017,1,19,stim.wav,0,11,1926,-3.6008559690581587,0,2.8357541039408436
1,19-May-2017,1,19,stim.wav,0,12,2226,3.1536249465867487,0,2.8357541039408436
1,19-May-2017,1,19,stim.wav,0,13,2560,2.7991250889448893,0,2.8357541039408436
1,19-May-2017,1,19,stim.wav,0,14,2932,-1.4824868004191263,0,2.8357541039408436
1,19-May-2017,1,19,stim.wav,0,15,3346,5.612834870104342,0,2.8357541039408436
1,19-May-2017,1,19,stim.wav,0,16,3808,-7.308115107953263,0,2.8357541039408436
1,19-May-2017,1,19,stim.wav,0,17,4322,-2.6548838926892144,0,2.8357541039408436
1,19-May-2017,1,19,stim.wav,0,18,4895,-5.776304604631792,0,2.8357541039408436
1,19-May-2017,1,19,stim.wav,0,19,5534,-10.197818718642505,0,2.8357541039408436
1,19-May-2017,1,19,stim.wav,0,20,6245,7.415220911919008,0,2.8357541039408436
1,19-May-2017,1,19,stim.wav,0,21,7037,8.869061028791386,0,2.8357541039408436
1,19-May-2017,1,19,stim.wav,0,22,7920,-8.60070914103983,0,2.8357541039408436
1,19-May-2017,1,19,stim.wav,0,23,8904,0.849516223112764,0,2.8357541039408436
1,19-May-2017,1,19,stim.wav,0,24,10000,0.4590608804250251,0,2.8357541039408436
1,19-May-2017,1,19,stim.wav,1,0,100,-0.2718663219222408,1,2.8357541039408436
1,19-May-2017,1,19,stim.wav,1,1,191,0.5738809607100159,1,2.8357541039408436
1,19-May-2017,1,19,stim.wav,1,2,293,4.100515816757254,1,2.8357541039408436
1,19-May-2017,1,19,stim.wav,1,3,406,-2.438715170415105,1,2.8357541039408436
1,19-May-2017,1,19,stim.wav,1,4,533,-5.480525517822386,1,2.8357541039408436
1,19-May-2017,1,19,stim.wav,1,5,673,1.2074066972369066,1,2.8357541039408436
1,19-May-2017,1,19,stim.wav,1,6,830,4.101067801597479,1,2.8357541039408436
1,19-May-2017,1,19,stim.wav,1,7,1004,2.8061639709469297,1,2.8357541039408436
1,19-May-2017,1,19,stim.wav,1,8,1199,1.7307390063041563,1,2.8357541039408436
1,19-May-2017,1,19,stim.wav,1,9,1416,4.161179266357934,1,2.8357541039408436
1,19-May-2017,1,19,stim.wav,1,10,1657,0.17899069504217152,1,2.8357541039408436
1,19-May-2017,1,19,stim.wav,1,11,1926,-2.694584169847311,1,2.8357541039408436
1,19-May-2017,1,19,stim.wav,1,12,2226,-3.2966143030181816,1,2.8357541039408436
1,19-May-2017,1,19,stim.wav,1,13,2560,-1.9022798191357437,1,2.8357541039408436
1,19-May-2017,1,19,stim.wav,1,14,2932,3.587015030973177,1,2.8357541039408436
1,19-May-2017,1,19,stim.wav,1,15,3346,1.5885773265167065,1,2.8357541039408436
1,19-May-2017,1,19,stim.wav,1,16,3808,6.886227615418986,1,2.8357541039408436
1,19-May-2017,1,19,stim.wav,1,17,4322,3.6119853012377243,1,2.8357541039408436
1,19-May-2017,1,19,stim.wav,1,18,4895,-1.1763975234680244,1,2.8357541039408436
1,19-May-2017,1,19,stim.wav,1,19,5534,-0.5371301974393445,1,2.8357541039408436
1,19-May-2017,1,19,stim.wav,1,20,6245,0.7612105719900615,1,2.8357541039408436
1,19-May-2017,1,19,stim.wav,1,21,7037,2.3743171719647784,1,2.8357541039408436
1,19-May-2017,1,19,stim.wav,1,22,7920,8.508764137636518,1,2.8357541039408436
1,19-May-2017,1,19,stim.wav,1,23,8904,-2.8139484276786564,1,2.8357541039408436
1,19-May-2017,1,19,stim.wav,1,24,10000,-0.03680336436825925,1,2.8357541039408436
1,19-May-2017,1,20,stim.wav,0,0,100,-1.919776724837472,1,3.219784783646157
1,19-May-2017,1,20,stim.wav,0,1,191,-4.947187799112356,1,3.219784783646157
1,19-May-2017,1,20,stim.wav,0,2,293,2.8253394024808394,1,3.219784783646157
1,19-May-2017,1,20,stim.wav,0,3,406,4.9295773156690705,1,3.219784783646157
1,19-May-2017,1,20,stim.wav,0,4,533,-5.017426388890981,1,3.219784783646157
1,19-May-2017,1,20,stim.wav,0,5,673,-0.04918996969695392,1,3.219784783646157
1,19-May-2017,1,20,stim.wav,0,6,830,10.054974706877072,1,3.219784783646157
1,19-May-2017,1,20,stim.wav,0,7,1004,-6.840691429593836,1,3.219784783646157
1,19-May-2017,1,20,stim.wav,0,8,1199,3.0788416187250456,1,3.219784783646157
1,19-May-2017,1,20,stim.wav,0,9,1416,1.9918328783818284,1,3.219784783646157
1,19-May-2017,1,20,stim.wav,0,10,1657,0.7042970011983725,1,3.219784783646157
1,19-May-2017,1,20,stim.wav,0,11,1926,-2.096132132874945,1,3.219784783646157
1,19-May-2017,1,20,stim.wav,0,12,2226,-3.8064452175639825,1,3.219784783646157
1,19-May-2017,1,20,stim.wav,0,13,2560,7.50356462234424,1,3.219784783646157
1,19-May-2017,1,20,stim.wav,0,14,2932,1.590813157395148,1,3.219784783646157
1,19-May-2017,1,20,stim.wav,0,15,3346,2.9037030580869256,1,3.219784783646157
1,19-May-2017,1,20,stim.wav,0,16,3808,-1.24968571615308,1,3.219784783646157
1,19-May-2017,1,20,stim.wav,0,17,4322,-3.713570062558342,1,3.219784783646157
1,19-May-2017,1,20,stim.wav,0,18,4895,-1.4979769643162502,1,3.219784783646157
1,19-May-2017,1,20,stim.wav,0,19,5534,-3.851568305298721,1,3.219784783646157
1,19-May-2017,1,20,stim.wav,0,20,6245,3.925949639090243,1,3.219784783646157
1,19-May-2017,1,20,stim.wav,0,21,7037,9.151501231860772,1,3.219784783646157
1,19-May-2017,1,20,stim.wav,0,22,7920,-0.831604206826269,1,3.219784783646157
1,19-May-2017,1,20,stim.wav,0,23,8904,-2.4177978610583533,1,3.219784783646157
1,19-May-2017,1,20,stim.wav,0,24,10000,4.8720916338406886,1,3.219784783646157
1,19-May-2017,1,20,stim.wav,1,0,100,-5.192501162521882,0,3.219784783646157
1,19-May-2017,1,20,stim.wav,1,1,191,-2.7259687133501735,0,3.219784783646157
1,19-May-2017,1,20,stim.wav,1,2,293,2.68755100670743,0,3.219784783646157
1,19-May-2017,1,20,stim.wav,1,3,406,-7.197474463787911,0,3.219784783646157
1,19-May-2017,1,20,stim.wav,1,4,533,9.147650321606358,0,3.219784783646157
1,19-May-2017,1,20,stim.wav,1,5,673,1.9715296171399137,0,3.219784783646157
1,19-May-2017,1,20,stim.wav,1,6,830,-0.36842769047007784,0,3.219784783646157
1,19-May-2017,1,20,stim.wav,1,7,1004,-1.593897063590508,0,3.219784783646157
1,19-May-2017,1,20,stim.wav,1,8,1199,4.7581813298129365,0,3.219784783646157
1,19-May-2017,1,20,stim.wav,1,9,1416,-1.909852603385211,0,3.219784783646157
1,19-May-2017,1,20,stim.wav,1,10,1657,-7.333983588830383,0,3.219784783646157
1,19-May-2017,1,20,stim.wav,1,11,1926,-7.926828935707151,0,3.219784783646157
1,19-May-2017,1,20,stim.wav,1,12,2226,6.175243875943499,0,3.219784783646157
1,19-May-2017,1,20,stim.wav,1,13,2560,8.078639442106734,0,3.219784783646157
1,19-May-2017,1,20,stim.wav,1,14,2932,-7.116531854326036,0,3.219784783646157
1,19-May-2017,1,20,stim.wav,1,15,3346,4.08804528333323,0,3.219784783646157
1,19-May-2017,1,20,stim.wav,1,16,3808,-5.599246628431239,0,3.219784783646157
1,19-May-2017,1,20,stim.wav,1,17,4322,-2.3397166609851965,0,3.219784783646157
1,19-May-2017,1,20,stim.wav,1,18,4895,-6.154485336993108,0,3.219784783646157
1,19-May-2017,1,20,stim.wav,1,19,5534,1.4668636476284926,0,3.219784783646157
1,19-May-2017,1,20,stim.wav,1,20,6245,-8.005267129458481,0,3.219784783646157
1,19-May-2017,1,20,stim.wav,1,21,7037,3.7827027028797615,0,3.219784783646157
1,19-May-2017,1,20,stim.wav,1,22,7920,4.651118691347972,0,3.219784783646157
1,19-May-2017,1,20,stim.wav,1,23,8904,-5.850328544998581,0,3.219784783646157
1,19-May-2017,1,20,stim.wav,1,24,10000,-2.522591212000857,0,3.219784783646157
1,19-May-2017,1,21,stim.wav,0,0,100,-3.774660679424138,0,2.5902049361894286
1,19-May-2017,1,21,stim.wav,0,1,191,-6.291529266894967,0,2.5902049361894286
1,19-May-2017,1,21,stim.wav,0,2,293,0.49699123238340054,0,2.5902049361894286
1,19-May-2017,1,21,stim.wav,0,3,406,10.903630960675692,0,2.5902049361894286
1,19-May-2017,1,21,stim.wav,0,4,533,2.931888613111244,0,2.5902049361894286
1,19-May-2017,1,21,stim.wav,0,5,673,0.1123093267578309,0,2.5902049361894286
1,19-May-2017,1,21,stim.wav,0,6,830,3.029571270954519,0,2.5902049361894286
1,19-May-2017,1,21,stim.wav,0,7,1004,-3.2383512330244484,0,2.5902049361894286
1,19-May-2017,1,21,stim.wav,0,8,1199,0.2837250313593934,0,2.5902049361894286
1,19-May-2017,1,21,stim.wav,0,9,1416,-5.14808766846059,0,2.5902049361894286
1,19-May-2017,1,21,stim.wav,0,10,1657,-8.364703747659986,0,2.5902049361894286
1,19-May-2017,1,21,stim.wav,0,11,1926,-0.13169064835973723,0,2.5902049361894286
1,19-May-2017,1,21,stim.wav,0,12,2226,-5.3005526648407955,0,2.5902049361894286
1,19-May-2017,1,21,stim.wav,0,13,2560,-5.8643838778942925,0,2.5902049361894286
1,19-May-2017,1,21,stim.wav,0,14,2932,-1.1940263037035486,0,2.5902049361894286
1,19-May-2017,1,21,stim.wav,0,15,3346,0.8329880250078716,0,2.5902049361894286
1,19-May-2017,1,21,stim.wav,0,16,3808,6.712303744670168,0,2.5902049361894286
1,19-May-2017,1,21,stim.wav,0,17,4322,-9.399101869505014,0,2.5902049361894286
1,19-May-2017,1,21,stim.wav,0,18,4895,-1.2407856564580098,0,2.5902049361894286
1,19-May-2017,1,21,stim.wav,0,19,5534,1.2666036304682302,0,2.5902049361894286
1,19-May-2017,1,21,stim.wav,0,20,6245,-4.542309365329874,0,2.5902049361894286
1,19-May-2017,1,21,stim.wav,0,21,7037,0.2657459153922538,0,2.5902049361894286
1,19-May-2017,1,21,stim.wav,0,22,7920,2.1001413709571697,0,2.5902049361894286
1,19-May-2017,1,21,stim.wav,0,23,8904,-3.551849934905472,0,2.5902049361894286
1,19-May-2017,1,21,stim.wav,0,24,10000,-2.14566276956998,0,2.5902049361894286
1,19-May-2017,1,21,stim.wav,1,0,100,5.375508314120367,1,2.5902049361894286
1,19-May-2017,1,21,stim.wav,1,1,191,-4.968589127559125,1,2.5902049361894286
1,19-May-2017,1,21,stim.wav,1,2,293,9.15330929550332,1,2.5902049361894286
1,19-May-2017,1,21,stim.wav,1,3,406,-3.1204384248261885,1,2.5902049361894286
1,19-May-2017,1,21,stim.wav,1,4,533,0.37159233630409083,1,2.5902049361894286
1,19-May-2017,1,21,stim.wav,1,5,673,8.70175329792367,1,2.5902049361894286
1,19-May-2017,1,21,stim.wav,1,6,830,-10.699401932728296,1,2.5902049361894286
1,19-May-2017,1,21,stim.wav,1,7,1004,-2.784708623379352,1,2.5902049361894286
1,19-May-2017,1,21,stim.wav,1,8,1199,9.261116932121409,1,2.5902049361894286
1,19-May-2017,1,21,stim.wav,1,9,1416,3.697506205899104,1,2.5902049361894286
1,19-May-2017,1,21,stim.wav,1,10,1657,8.428924294294973,1,2.5902049361894286
1,19-May-2017,1,21,stim.wav,1,11,1926,-5.3327313178625175,1,2.5902049361894286
1,19-May-2017,1,21,stim.wav,1,12,2226,-4.19981457890511,1,2.5902049361894286
1,19-May-2017,1,21,stim.wav,1,13,2560,-2.026482337433599,1,2.5902049361894286
1,19-May-2017,1,21,stim.wav,1,14,2932,-7.339181659414439,1,2.5902049361894286
1,19-May-2017,1,21,stim.wav,1,15,3346,0.853875604418372,1,2.5902049361894286
1,19-May-2017,1,21,stim.wav,1,16,3808,3.3365302985276353,1,2.5902049361894286
1,19-May-2017,1,21,stim.wav,1,17,4322,-1.5227656299975392,1,2.5902049361894286
1,19-May-2017,1,21,stim.wav,1,18,4895,-2.9030214900266382,1,2.5902049361894286
1,19-May-2017,1,21,stim.wav,1,19,5534,-2.9536289805170735,1,2.5902049361894286
1,19-May-2017,1,21,stim.wav,1,20,6245,-0.340886130785961,1,2.5902049361894286
1,19-May-2017,1,21,stim.wav,1,21,7037,7.82571672464562,1,2.5902049361894286
1,19-May-2017,1,21,stim.wav,1,22,7920,-4.695445783487614,1,2.5902049361894286
1,19-May-2017,1,21,stim.wav,1,23,8904,-3.496283009178076,1,2.5902049361894286
1,19-May-2017,1,21,stim.wav,1,24,10000,4.735128367927374,1,2.5902049361894286
1,19-May-2017,1,22,stim.wav,0,0,100,-5.562952164656569,1,7.0899492149614876
1,19-May-2017,1,22,stim.wav,0,1,191,1.6626696183671732,1,7.0899492149614876
1,19-May-2017,1,22,stim.wav,0,2,293,-2.015656671022877,1,7.0899492149614876
1,19-May-2017,1,22,stim.wav,0,3,406,3.530587301975083,1,7.0899492149614876
1,19-May-2017,1,22,stim.wav,0,4,533,4.788805859743739,1,7.0899492149614876
1,19-May-2017,1,22,stim.wav,0,5,673,-11.337405699056733,1,7.0899492149614876
1,19-May-2017,1,22,stim.wav,0,6,830,-2.6028269948520726,1,7.0899492149614876
1,19-May-2017,1,22,stim.wav,0,7,1004,3.8603897909514666,1,7.0899492149614876
1,19-May-2017,1,22,stim.wav,0,8,1199,1.3771818000498022,1,7.0899492149614876
1,19-May-2017,1,22,stim.wav,0,9,1416,3.747329327887935,1,7.0899492149614876
1,19-May-2017,1,22,stim.wav,0,10,1657,-7.056421334324071,1,7.0899492149614876
1,19-May-2017,1,22,stim.wav,0,11,1926,0.9860932407344353,1,7.0899492149614876
1,19-May-2017,1,22,stim.wav,0,12,2226,4.513492457761263,1,7.0899492149614876
1,19-May-2017,1,22,stim.wav,0,13,2560,1.0139375882323618,1,7.0899492149614876
1,19-May-2017,1,22,stim.wav,0,14,2932,3.1342160096422895,1,7.0899492149614876
1,19-May-2017,1,22,stim.wav,0,15,3346,-2.989764112808497,1,7.0899492149614876
1,19-May-2017,1,22,stim.wav,0,16,3808,-2.255969589525403,1,7.0899492149614876
1,19-May-2017,1,22,stim.wav,0,17,4322,-2.3053290645668394,1,7.0899492149614876
1,19-May-2017,1,22,stim.wav,0,18,4895,4.824857151682255,1,7.0899492149614876
1,19-May-2017,1,22,stim.wav,0,19,5534,1.6720952780903011,1,7.0899492149614876
1,19-May-2017,1,22,stim.wav,0,20,6245,-1.049384020083356,1,7.0899492149614876
1,19-May-2017,1,22,stim.wav,0,21,7037,4.384515223259894,1,7.0899492149614876
1,19-May-2017,1,22,stim.wav,0,22,7920,6.9002071361327175,1,7.0899492149614876
1,19-May-2017,1,22,stim.wav,0,23,8904,-2.176764822876745,1,7.0899492149614876
1,19-May-2017,1,22,stim.wav,0,24,10000,7.582376335347094,1,7.0899492149614876
1,19-May-2017,1,22,stim.wav,1,0,100,-10.35965571019914,0,7.0899492149614876
1,19-May-2017,1,22,stim.wav,1,1,191,-4.1766637493042875,0,7.0899492149614876
1,19-May-2017,1,22,stim.wav,1,2,293,-5.367596529375787,0,7.0899492149614876
1,19-May-2017,1,22,stim.wav,1,3,406,-6.477095902606102,0,7.0899492149614876
1,19-May-2017,1,22,stim.wav,1,4,533,1.612226360296268,0,7.0899492149614876
1,19-May-2017,1,22,stim.wav,1,5,673,1.264352589318283,0,7.0899492149614876
1,19-May-2017,1,22,stim.wav,1,6,830,-2.8331988723107764,0,7.0899492149614876
1,19-May-2017,1,22,stim.wav,1,7,1004,7.213012217475844,0,7.0899492149614876
1,19-May-2017,1,22,stim.wav,1,8,1199,3.633067025296362,0,7.0899492149614876
1,19-May-2017,1,22,stim.wav,1,9,1416,3.57216918882905,0,7.0899492149614876
1,19-May-2017,1,22,stim.wav,1,10,1657,8.570541686051577,0,7.0899492149614876
1,19-May-2017,1,22,stim.wav,1,11,1926,2.1966304511667003,0,7.0899492149614876
1,19-May-2017,1,22,stim.wav,1,12,2226,-3.214423799982935,0,7.0899492149614876
1,19-May-2017,1,22,stim.wav,1,13,2560,-2.957389443865654,0,7.0899492149614876
1,19-May-2017,1,22,stim.wav,1,14,2932,0.6899830268902469,0,7.0899492149614876
1,19-May-2017,1,22,stim.wav,1,15,3346,7.659716178496945,0,7.0899492149614876
1,19-May-2017,1,22,stim.wav,1,16,3808,-4.945675164108449,0,7.0899492149614876
1,19-May-2017,1,22,stim.wav,1,17,4322,2.3966989335543922,0,7.0899492149614876
1,19-May-2017,1,22,stim.wav,1,18,4895,-3.3971936896620636,0,7.0899492149614876
1,19-May-2017,1,22,stim.wav,1,19,5534,4.292764408930402,0,7.0899492149614876
1,19-May-2017,1,22,stim.wav,1,20,6245,-2.8043990682291913,0,7.0899492149614876
1,19-May-2017,1,22,stim.wav,1,21,7037,-2.661855356338571,0,7.0899492149614876
1,19-May-2017,1,22,stim.wav,1,22,7920,-0.6556967177639959,0,7.0899492149614876
1,19-May-2017,1,22,stim.wav,1,23,8904,5.582333207383032,0,7.0899492149614876
1,19-May-2017,1,22,stim.wav,1,24,10000,2.3633536207377674,0,7.0899492149614876
1,19-May-2017,1,23,stim.wav,0,0,100,1.7522252578848332,0,3.361800209024308
1,19-May-2017,1,23,stim.wav,0,1,191,-3.5843012506201957,0,3.361800209024308
1,19-May-2017,1,23,stim.wav,0,2,293,8.554215307330454,0,3.361800209024308
1,19-May-2017,1,23,stim.wav,0,3,406,4.711668387901523,0,3.361800209024308
1,19-May-2017,1,23,stim.wav,0,4,533,-0.3171758799721797,0,3.361800209024308
1,19-May-2017,1,23,stim.wav,0,5,673,0.34337074890725133,0,3.361800209024308
1,19-May-2017,1,23,stim.wav,0,6,830,-0.8602433228194766,0,3.361800209024308
1,19-May-2017,1,23,stim.wav,0,7,1004,2.917690459412705,0,3.361800209024308
1,19-May-2017,1,23,stim.wav,0,8,1199,-1.6232925582669298,0,3.361800209024308
1,19-May-2017,1,23,stim.wav,0,9,1416,3.195709977984929,0,3.361800209024308
1,19-May-2017,1,23,stim.wav,0,10,1657,2.1067321013590994,0,3.361800209024308
1,19-May-2017,1,23,stim.wav,0,11,1926,0.01488835809361887,0,3.361800209024308
1,19-May-2017,1,23,stim.wav,0,12,2226,4.725673527555543,0,3.361800209024308
1,19-May-2017,1,23,stim.wav,0,13,2560,-4.72120832550448,0,3.361800209024308
1,19-May-2017,1,23,stim.wav,0,14,2932,3.706141397946774,0,3.361800209024308
1,19-May-2017,1,23,stim.wav,0,15,3346,-4.249168763582921,0,3.361800209024308
1,19-May-2017,1,23,stim.wav,0,16,3808,3.339640386518932,0,3.361800209024308
1,19-May-2017,1,23,stim.wav,0,17,4322,2.5623771069275785,0,3.361800209024308
1,19-May-2017,1,23,stim.wav,0,18,4895,3.469184545010095,0,3.361800209024308
1,19-May-2017,1,23,stim.wav,0,19,5534,11.511421870224204,0,3.361800209024308
1,19-May-2017,1,23,stim.wav,0,20,6245,6.48741997216619,0,3.361800209024308
1,19-May-2017,1,23,stim.wav,0,21,7037,-4.5008285250392825,0,3.361800209024308
1,19-May-2017,1,23,stim.wav,0,22,7920,-3.381340183180963,0,3.361800209024308
1,19-May-2017,1,23,stim.wav,0,23,8904,3.8396381972890126,0,3.361800209024308
1,19-May-2017,1,23,stim.wav,0,24,10000,6.882773534046254,0,3.361800209024308
1,19-May-2017,1,23,stim.wav,1,0,100,-0.019307209985976063,1,3.361800209024308
1,19-May-2017,1,23,stim.wav,1,1,191,-0.014243576335498638,1,3.361800209024308
1,19-May-2017,1,23,stim.wav,1,2,293,-7.636602862604556,1,3.361800209024308
1,19-May-2017,1,23,stim.wav,1,3,406,-2.323261373242035,1,3.361800209024308
1,19-May-2017,1,23,stim.wav,1,4,533,6.842504531887408,1,3.361800209024308
1,19-May-2017,1,23,stim.wav,1,5,673,-1.7656319225696206,1,3.361800209024308
1,19-May-2017,1,23,stim.wav,1,6,830,-2.2747857622382672,1,3.361800209024308
1,19-May-2017,1,23,stim.wav,1,7,1004,-0.8844534722854568,1,3.361800209024308
1,19-May-2017,1,23,stim.wav,1,8,1199,-6.305095509541276,1,3.361800209024308
1,19-May-2017,1,23,stim.wav,1,9,1416,6.069666469325772,1,3.361800209024308
1,19-May-2017,1,23,stim.wav,1,10,1657,-3.634640315494037,1,3.361800209024308
1,19-May-2017,1,23,stim.wav,1,11,1926,9.863258146677323,1,3.361800209024308
1,19-May-2017,1,23,stim.wav,1,12,2226,3.3441660556818738,1,3.361800209024308
1,19-May-2017,1,23,stim.wav,1,13,2560,6.952184029388526,1,3.361800209024308
1,19-May-2017,1,23,stim.wav,1,14,2932,-7.528044299161005,1,3.361800209024308
1,19-May-2017,1,23,stim.wav,1,15,3346,-1.0649139765526392,1,3.361800209024308
1,19-May-2017,1,23,stim.wav,1,16,3808,-5.153750002486736,1,3.361800209024308
1,19-May-2017,1,23,stim.wav,1,17,4322,-7.106207433645392,1,3.361800209024308
1,19-May-2017,1,23,stim.wav,1,18,4895,-1.7458996358715964,1,3.361800209024308
1,19-May-2017,1,23,stim.wav,1,19,5534,7.822333353021097,1,3.361800209024308
1,19-May-2017,1,23,stim.wav,1,20,6245,2.7755872907452583,1,3.361800209024308
1,19-May-2017,1,23,stim.wav,1,21,7037,1.5513849974935408,1,3.361800209024308
1,19-May-2017,1,23,stim.wav,1,22,7920,-4.519685202511389,1,3.361800209024308
1,19-May-2017,1,23,stim.wav,1,23,8904,2.762296910235519,1,3.361800209024308
1,19-May-2017,1,23,stim.wav,1,24,10000,5.177506488848898,1,3.361800209024308
1,19-May-2017,1,24,stim.wav,0,0,100,-0.3361112711421965,0,1.7819920940233074
1,19-May-2017,1,24,stim.wav,0,1,191,0.3380196997713391,0,1.7819920940233074
1,19-May-2017,1,24,stim.wav,0,2,293,5.227817509720802,0,1.7819920940233074
1,19-May-2017,1,24,stim.wav,0,3,406,2.403054352922283,0,1.7819920940233074
1,19-May-2017,1,24,stim.wav,0,4,533,-8.619059085649415,0,1.7819920940233074
1,19-May-2017,1,24,stim.wav,0,5,673,7.564010550082836,0,1.7819920940233074
1,19-May-2017,1,24,stim.wav,0,6,830,2.9882148053465736,0,1.7819920940233074
1,19-May-2017,1,24,stim.wav,0,7,1004,-2.71877804502623,0,1.7819920940233074
1,19-May-2017,1,24,stim.wav,0,8,1199,-1.4355917554819977,0,1.7819920940233074
1,19-May-2017,1,24,stim.wav,0,9,1416,1.3064696227992392,0,1.7819920940233074
1,19-May-2017,1,24,stim.wav,0,10,1657,11.477888922442725,0,1.7819920940233074
1,19-May-2017,1,24,stim.wav,0,11,1926,8.499270830581008,0,1.7819920940233074
1,19-May-2017,1,24,stim.wav,0,12,2226,-0.9695707959461525,0,1.7819920940233074
1,19-May-2017,1,24,stim.wav,0,13,2560,2.490861678038246,0,1.7819920940233074
1,19-May-2017,1,24,stim.wav,0,14,2932,0.08234043971485921,0,1.7819920940233074
1,19-May-2017,1,24,stim.wav,0,15,3346,-0.8668021611206038,0,1.7819920940233074
1,19-May-2017,1,24,stim.wav,0,16,3808,-1.8188669170737066,0,1.7819920940233074
1,19-May-2017,1,24,stim.wav,0,17,4322,-2.8134979853042026,0,1.7819920940233074
1,19-May-2017,1,24,stim.wav,0,18,4895,-1.3788788025383205,0,1.7819920940233074
1,19-May-2017,1,24,stim.wav,0,19,5534,2.0560405906254937,0,1.7819920940233074
1,19-May-2017,1,24,stim.wav,0,20,6245,7.06880250837007,0,1.7819920940233074
1,19-May-2017,1,24,stim.wav,0,21,7037,4.157207841716198,0,1.7819920940233074
1,19-May-2017,1,24,stim.wav,0,22,7920,-4.3601073685254175,0,1.7819920940233074
1,19-May-2017,1,24,stim.wav,0,23,8904,0.3178713436879139,0,1.7819920940233074
1,19-May-2017,1,24,stim.wav,0,24,10000,-1.84107894961409,0,1.7819920940233074
1,19-May-2017,1,24,stim.wav,1,0,100,6.852307818070255,1,1.7819920940233074
1,19-May-2017,1,24,stim.wav,1,1,191,-2.500924113500407,1,1.7819920940233074
1,19-May-2017,1,24,stim.wav,1,2,293,1.461966437405556,1,1.7819920940233074
1,19-May-2017,1,24,stim.wav,1,3,406,-4.303752278109394,1,1.7819920940233074
1,19-May-2017,1,24,stim.wav,1,4,533,-7.441660783488587,1,1.7819920940233074
1,19-May-2017,1,24,stim.wav,1,5,673,0.8990676376460156,1,1.7819920940233074
1,19-May-2017,1,24,stim.wav,1,6,830,3.195036157975164,1,1.7819920940233074
1,19-May-2017,1,24,stim.wav,1,7,1004,1.199475111865659,1,1.7819920940233074
1,19-May-2017,1,24,stim.wav,1,8,1199,3.2276205939428766,1,1.7819920940233074
1,19-May-2017,1,24,stim.wav,1,9,1416,-5.793141357270168,1,1.7819920940233074
1,19-May-2017,1,24,stim.wav,1,10,1657,5.186492264647621,1,1.7819920940233074
1,19-May-2017,1,24,stim.wav,1,11,1926,-2.0782000176166506,1,1.7819920940233074
1,19-May-2017,1,24,stim.wav,1,12,2226,6.720073661508091,1,1.7819920940233074
1,19-May-2017,1,24,stim.wav,1,13,2560,-6.850938179755293,1,1.7819920940233074
1,19-May-2017,1,24,stim.wav,1,14,2932,9.50902234213244,1,1.7819920940233074
1,19-May-2017,1,24,stim.wav,1,15,3346,-1.213636117889608,1,1.7819920940233074
1,19-May-2017,1,24,stim.wav,1,16,3808,-2.2501852660810067,1,1.7819920940233074
1,19-May-2017,1,24,stim.wav,1,17,4322,0.7365951651786775,1,1.7819920940233074
1,19-May-2017,1,24,stim.wav,1,18,4895,8.82443640495461,1,1.7819920940233074
1,19-May-2017,1,24,stim.wav,1,19,5534,0.9141301588224846,1,1.7819920940233074
1,19-May-2017,1,24,stim.wav,1,20,6245,6.233815348809525,1,1.7819920940233074
1,19-May-2017,1,24,stim.wav,1,21,7037,-0.15470882328055852,1,1.7819920940233074
1,19-May-2017,1,24,stim.wav,1,22,7920,-8.79741081631733,1,1.7819920940233074
1,19-May-2017,1,24,stim.wav,1,23,8904,-3.292066784852785,1,1.7819920940233074
1,19-May-2017,1,24,stim.wav,1,24,10000,4.32633448529765,1,1.7819920940233074
1,19-May-2017,1,25,stim.wav,0,0,100,3.9738262520656926,1,2.087596579664432
1,19-May-2017,1,25,stim.wav,0,1,191,2.0571066061361636,1,2.087596579664432
1,19-May-2017,1,25,stim.wav,0,2,293,-10.519014757109595,1,2.087596579664432
1,19-May-2017,1,25,stim.wav,0,3,406,-1.2604420094974278,1,2.087596579664432
1,19-May-2017,1,25,stim.wav,0,4,533,-5.4685504549098765,1,2.087596579664432
1,19-May-2017,1,25,stim.wav,0,5,673,-2.7258263977256343,1,2.087596579664432
1,19-May-2017,1,25,stim.wav,0,6,830,1.7793545771984962,1,2.087596579664432
1,19-May-2017,1,25,stim.wav,0,7,1004,1.1073252100455124,1,2.087596579664432
1,19-May-2017,1,25,stim.wav,0,8,1199,2.69947995175336,1,2.087596579664432
1,19-May-2017,1,25,stim.wav,0,9,1416,1.3912888895747182,1,2.087596579664432
1,19-May-2017,1,25,stim.wav,0,10,1657,1.291668327918426,1,2.087596579664432
1,19-May-2017,1,25,stim.wav,0,11,1926,-4.397579640124541,1,2.087596579664432
1,19-May-2017,1,25,stim.wav,0,12,2226,-3.612344322092058,1,2.087596579664432
1,19-May-2017,1,25,stim.wav,0,13,2560,-3.3687983461053443,1,2.087596579664432
1,19-May-2017,1,25,stim.wav,0,14,2932,-0.8976339726042306,1,2.087596579664432
1,19-May-2017,1,25,stim.wav,0,15,3346,2.6473796393167257,1,2.087596579664432
1,19-May-2017,1,25,stim.wav,0,16,3808,-4.44688770264191,1,2.087596579664432
1,19-May-2017,1,25,stim.wav,0,17,4322,1.1128600927364942,1,2.087596579664432
1,19-May-2017,1,25,stim.wav,0,18,4895,-0.05181245471146814,1,2.087596579664432
1,19-May-2017,1,25,stim.wav,0,19,5534,3.4488462198475918,1,2.087596579664432
1,19-May-2017,1,25,stim.wav,0,20,6245,-10.549003719688612,1,2.087596579664432
1,19-May-2017,1,25,stim.wav,0,21,7037,0.4622625838041191,1,2.087596579664432
1,19-May-2017,1,25,stim.wav,0,22,7920,6.134070079621919,1,2.087596579664432
1,19-May-2017,1,25,stim.wav,0,23,8904,-10.837300154735118,1,2.087596579664432
1,19-May-2017,1,25,stim.wav,0,24,10000,-2.489212115511989,1,2.087596579664432
1,19-May-2017,1,25,stim.wav,1,0,100,6.888344933894491,0,2.087596579664432
1,19-May-2017,1,25,stim.wav,1,1,191,-1.2351912783504901,0,2.087596579664432
1,19-May-2017,1,25,stim.wav,1,2,293,-4.16942582175086,0,2.087596579664432
1,19-May-2017,1,25,stim.wav,1,3,406,3.5333673031706576,0,2.087596579664432
1,19-May-2017,1,25,stim.wav,1,4,533,-1.1274851270629103,0,2.087596579664432
1,19-May-2017,1,25,stim.wav,1,5,673,0.34943147200042235,0,2.087596579664432
1,19-May-2017,1,25,stim.wav,1,6,830,-4.420966266904651,0,2.087596579664432
1,19-May-2017,1,25,stim.wav,1,7,1004,1.4214767156957806,0,2.087596579664432
1,19-May-2017,1,25,stim.wav,1,8,1199,-3.284237521590102,0,2.087596579664432
1,19-May-2017,1,25,stim.wav,1,9,1416,-1.2275544219451413,0,2.087596579664432
1,19-May-2017,1,25,stim.wav,1,10,1657,-6.093991217321334,0,2.087596579664432
1,19-May-2017,1,25,stim.wav,1,11,1926,1.0882694543625562,0,2.087596579664432
1,19-May-2017,1,25,stim.wav,1,12,2226,4.376649249485597,0,2.087596579664432
1,19-May-2017,1,25,stim.wav,1,13,2560,-4.71987029791692,0,2.087596579664432
1,19-May-2017,1,25,stim.wav,1,14,2932,3.081043793067457,0,2.087596579664432
1,19-May-2017,1,25,stim.wav,1,15,3346,-1.9962692828652306,0,2.087596579664432
1,19-May-2017,1,25,stim.wav,1,16,3808,-7.094349975127283,0,2.087596579664432
1,19-May-2017,1,25,stim.wav,1,17,4322,4.010830990992985,0,2.087596579664432
1,19-May-2017,1,25,stim.wav,1,18,4895,-0.7375133298517313,0,2.087596579664432
1,19-May-2017,1,25,stim.wav,1,19,5534,-6.681561088295565,0,2.087596579664432
1,19-May-2017,1,25,stim.wav,1,20,6245,7.950598789362822,0,2.087596579664432
1,19-May-2017,1,25,stim.wav,1,21,7037,1.1523210019858434,0,2.087596579664432
1,19-May-2017,1,25,stim.wav,1,22,7920,9.784860947893533,0,2.087596579664432
1,19-May-2017,1,25,stim.wav,1,23,8904,-6.6481917754049284,0,2.087596579664432
1,19-May-2017,1,25,stim.wav,1,24,10000,1.2886598527804047,0,2.087596579664432
1,19-May-2017,1,26,stim.wav,0,0,100,-5.66501848538495,1,4.323947651555452
1,19-May-2017,1,26,stim.wav,0,1,191,-8.244012297453104,1,4.323947651555452
1,19-May-2017,1,26,stim.wav,0,2,293,1.8847053020869373,1,4.323947651555452
1,19-May-2017,1,26,stim.wav,0,3,406,-1.2871544123214715,1,4.323947651555452
1,19-May-2017,1,26,stim.wav,0,4,533,1.0630583936533895,1,4.323947651555452
1,19-May-2017,1,26,stim.wav,0,5,673,9.93495979170264,1,4.323947651555452
1,19-May-2017,1,26,stim.wav,0,6,830,1.1282166906240474,1,4.323947651555452
1,19-May-2017,1,26,stim.wav,0,7,1004,1.8742051638947013,1,4.323947651555452
1,19-May-2017,1,26,stim.wav,0,8,1199,0.10854551689711503,1,4.323947651555452
1,19-May-2017,1,26,stim.wav,0,9,1416,1.7010435472045995,1,4.323947651555452
1,19-May-2017,1,26,stim.wav,0,10,1657,3.4256020695142415,1,4.323947651555452
1,19-May-2017,1,26,stim.wav,0,11,1926,2.4983195834842657,1,4.323947651555452
1,19-May-2017,1,26,stim.wav,0,12,2226,-3.7254856552174105,1,4.323947651555452
1,19-May-2017,1,26,stim.wav,0,13,2560,3.1393282439140697,1,4.323947651555452
1,19-May-2017,1,26,stim.wav,0,14,2932,-8.086922134818511,1,4.323947651555452
1,19-May-2017,1,26,stim.wav,0,15,3346,-5.391292153325456,1,4.323947651555452
1,19-May-2017,1,26,stim.wav,0,16,3808,4.714780621623723,1,4.323947651555452
1,19-May-2017,1,26,stim.wav,0,17,4322,2.9434793438649045,1,4.323947651555452
1,19-May-2017,1,26,stim.wav,0,18,4895,-7.267780867562371,1,4.323947651555452
1,19-May-2017,1,26,stim.wav,0,19,5534,-0.8480969717070055,1,4.323947651555452
1,19-May-2017,1,26,stim.wav,0,20,6245,7.619781811366531,1,4.323947651555452
1,19-May-2017,1,26,stim.wav,0,21,7037,-9.740447107384242,1,4.323947651555452
1,19-May-2017,1,26,stim.wav,0,22,7920,3.7058560272980583,1,4.323947651555452
1,19-May-2017,1,26,stim.wav,0,23,8904,8.589914850372438,1,4.323947651555452
1,19-May-2017,1,26,stim.wav,0,24,10000,9.322929107513504,1,4.323947651555452
1,19-May-2017,1,26,stim.wav,1,0,100,-0.6785645340490534,0,4.323947651555452
1,19-May-2017,1,26,stim.wav,1,1,191,5.280292887122442,0,4.323947651555452
1,19-May-2017,1,26,stim.wav,1,2,293,-1.6556230339328204,0,4.323947651555452
1,19-May-2017,1,26,stim.wav,1,3,406,4.561813576568823,0,4.323947651555452
1,19-May-2017,1,26,stim.wav,1,4,533,9.120961896072231,0,4.323947651555452
1,19-May-2017,1,26,stim.wav,1,5,673,-7.181832574970663,0,4.323947651555452
1,19-May-2017,1,26,stim.wav,1,6,830,3.256682318618714,0,4.323947651555452
1,19-May-2017,1,26,stim.wav,1,7,1004,-2.7414704156865195,0,4.323947651555452
1,19-May-2017,1,26,stim.wav,1,8,1199,-7.2089712649719395,0,4.323947651555452
1,19-May-2017,1,26,stim.wav,1,9,1416,0.10088790647964446,0,4.323947651555452
1,19-May-2017,1,26,stim.wav,1,10,1657,4.176603248353297,0,4.323947651555452
1,19-May-2017,1,26,stim.wav,1,11,1926,5.9600870299210795,0,4.323947651555452
1,19-May-2017,1,26,stim.wav,1,12,2226,6.161161615315917,0,4.323947651555452
1,19-May-2017,1,26,stim.wav,1,13,2560,-0.8281536582676872,0,4.323947651555452
1,19-May-2017,1,26,stim.wav,1,14,2932,3.360421614054321,0,4.323947651555452
1,19-May-2017,1,26,stim.wav,1,15,3346,-2.6109110628714953,0,4.323947651555452
1,19-May-2017,1,26,stim.wav,1,16,3808,2.2096747076726726,0,4.323947651555452
1,19-May-2017,1,26,stim.wav,1,17,4322,6.419370607725964,0,4.323947651555452
1,19-May-2017,1,26,stim.wav,1,18,4895,2.0655516514743057,0,4.323947651555452
1,19-May-2017,1,26,stim.wav,1,19,5534,-8.666420161162115,0,4.323947651555452
1,19-May-2017,1,26,stim.wav,1,20,6245,-3.2537647824240272,0,4.323947651555452
1,19-May-2017,1,26,stim.wav,1,21,7037,-3.217516484139718,0,4.323947651555452
1,19-May-2017,1,26,stim.wav,1,22,7920,5.788974169681045,0,4.323947651555452
1,19-May-2017,1,26,stim.wav,1,23,8904,-3.7212533064086655,0,4.323947651555452
1,19-May-2017,1,26,stim.wav,1,24,10000,-4.149132857847372,0,4.323947651555452
1,19-May-2017,1,27,stim.wav,0,0,100,3.0750168029805796,0,2.292112667865164
1,19-May-2017,1,27,stim.wav,0,1,191,-1.6861308429007917,0,2.292112667865164
1,19-May-2017,1,27,stim.wav,0,2,293,-3.3464964168887406,0,2.292112667865164
