subj,date,session,trial,stim,stim_order,filter,filter_freq,filter_gain,response,rt
5,19-May-2017,1,1,stim.wav,0,0,100,0.528150068919832,1,4.656287226843492
5,19-May-2017,1,1,stim.wav,0,1,191,2.3961635700378947,1,4.656287226843492
5,19-May-2017,1,1,stim.wav,0,2,293,1.813366153659794,1,4.656287226843492
5,19-May-2017,1,1,stim.wav,0,3,406,-2.2521019967105556,1,4.656287226843492
5,19-May-2017,1,1,stim.wav,0,4,533,-0.9257624378817763,1,4.656287226843492
5,19-May-2017,1,1,stim.wav,0,5,673,-0.1269177818014689,1,4.656287226843492
5,19-May-2017,1,1,stim.wav,0,6,830,2.820844289232147,1,4.656287226843492
5,19-May-2017,1,1,stim.wav,0,7,1004,-5.696800584779008,1,4.656287226843492
5,19-May-2017,1,1,stim.wav,0,8,1199,-2.008216121623566,1,4.656287226843492
5,19-May-2017,1,1,stim.wav,0,9,1416,-1.6027532519043026,1,4.656287226843492
5,19-May-2017,1,1,stim.wav,0,10,1657,-3.0342282914813894,1,4.656287226843492
5,19-May-2017,1,1,stim.wav,0,11,1926,2.2924508423532357,1,4.656287226843492
5,19-May-2017,1,1,stim.wav,0,12,2226,-1.3608634336363008,1,4.656287226843492
5,19-May-2017,1,1,stim.wav,0,13,2560,4.365247447697418,1,4.656287226843492
5,19-May-2017,1,1,stim.wav,0,14,2932,2.382937773432863,1,4.656287226843492
5,19-May-2017,1,1,stim.wav,0,15,3346,8.130186198675771,1,4.656287226843492
5,19-May-2017,1,1,stim.wav,0,16,3808,7.436509422355373,1,4.656287226843492
5,19-May-2017,1,1,stim.wav,0,17,4322,-4.648785040587688,1,4.656287226843492
5,19-May-2017,1,1,stim.wav,0,18,4895,-2.5023235071024255,1,4.656287226843492
5,19-May-2017,1,1,stim.wav,0,19,5534,1.6384731130230257,1,4.656287226843492
5,19-May-2017,1,1,stim.wav,0,20,6245,-6.331422508823969,1,4.656287226843492
5,19-May-2017,1,1,stim.wav,0,21,7037,3.889790273337399,1,4.656287226843492
5,19-May-2017,1,1,stim.wav,0,22,7920,-2.2411885977400585,1,4.656287226843492
5,19-May-2017,1,1,stim.wav,0,23,8904,-12.061016305211487,1,4.656287226843492
5,19-May-2017,1,1,stim.wav,0,24,10000,3.776271439717837,1,4.656287226843492
5,19-May-2017,1,1,stim.wav,1,0,100,-0.13030549260752883,0,4.656287226843492
5,19-May-2017,1,1,stim.wav,1,1,191,-4.877845475432634,0,4.656287226843492
5,19-May-2017,1,1,stim.wav,1,2,293,0.240213549376978,0,4.656287226843492
5,19-May-2017,1,1,stim.wav,1,3,406,10.384140523129092,0,4.656287226843492
5,19-May-2017,1,1,stim.wav,1,4,533,-8.47109107745193,0,4.656287226843492
5,19-May-2017,1,1,stim.wav,1,5,673,-0.46075664015148743,0,4.656287226843492
5,19-May-2017,1,1,stim.wav,1,6,830,3.036838390257664,0,4.656287226843492
5,19-May-2017,1,1,stim.wav,1,7,1004,5.323377709838921,0,4.656287226843492
5,19-May-2017,1,1,stim.wav,1,8,1199,2.487142793193505,0,4.656287226843492
5,19-May-2017,1,1,stim.wav,1,9,1416,8.465285406107366,0,4.656287226843492
5,19-May-2017,1,1,stim.wav,1,10,1657,6.174382828055862,0,4.656287226843492
5,19-May-2017,1,1,stim.wav,1,11,1926,-4.993387630571691,0,4.656287226843492
5,19-May-2017,1,1,stim.wav,1,12,2226,-0.2512637048873423,0,4.656287226843492
5,19-May-2017,1,1,stim.wav,1,13,2560,1.2133762958214798,0,4.656287226843492
5,19-May-2017,1,1,stim.wav,1,14,2932,-0.2331011325510769,0,4.656287226843492
5,19-May-2017,1,1,stim.wav,1,15,3346,2.506601983807111,0,4.656287226843492
5,19-May-2017,1,1,stim.wav,1,16,3808,0.1828634374002028,0,4.656287226843492
5,19-May-2017,1,1,stim.wav,1,17,4322,5.5311475763159095,0,4.656287226843492
5,19-May-2017,1,1,stim.wav,1,18,4895,9.437410240192735,0,4.656287226843492
5,19-May-2017,1,1,stim.wav,1,19,5534,-4.057840615072849,0,4.656287226843492
5,19-May-2017,1,1,stim.wav,1,20,6245,6.102619428811051,0,4.656287226843492
5,19-May-2017,1,1,stim.wav,1,21,7037,7.393309980680309,0,4.656287226843492
5,19-May-2017,1,1,stim.wav,1,22,7920,11.38413381111902,0,4.656287226843492
5,19-May-2017,1,1,stim.wav,1,23,8904,1.4721152495338612,0,4.656287226843492
5,19-May-2017,1,1,stim.wav,1,24,10000,1.6181264202732821,0,4.656287226843492
5,19-May-2017,1,2,stim.wav,0,0,100,-4.340038302764392,1,5.979131072016772
5,19-May-2017,1,2,stim.wav,0,1,191,8.633481842208896,1,5.979131072016772
5,19-May-2017,1,2,stim.wav,0,2,293,3.674724051386617,1,5.979131072016772
5,19-May-2017,1,2,stim.wav,0,3,406,2.1776689497878685,1,5.979131072016772
5,19-May-2017,1,2,stim.wav,0,4,533,1.5950149731784624,1,5.979131072016772
5,19-May-2017,1,2,stim.wav,0,5,673,5.568955845156127,1,5.979131072016772
5,19-May-2017,1,2,stim.wav,0,6,830,-2.4847078632268733,1,5.979131072016772
5,19-May-2017,1,2,stim.wav,0,7,1004,-6.906177915991705,1,5.979131072016772
5,19-May-2017,1,2,stim.wav,0,8,1199,3.5945678130785055,1,5.979131072016772
5,19-May-2017,1,2,stim.wav,0,9,1416,-5.995854038729139,1,5.979131072016772
5,19-May-2017,1,2,stim.wav,0,10,1657,0.44954073930479244,1,5.979131072016772
5,19-May-2017,1,2,stim.wav,0,11,1926,1.0407136502907686,1,5.979131072016772
5,19-May-2017,1,2,stim.wav,0,12,2226,-3.9066655941098523,1,5.979131072016772
5,19-May-2017,1,2,stim.wav,0,13,2560,-2.0428181589096868,1,5.979131072016772
5,19-May-2017,1,2,stim.wav,0,14,2932,1.4914734882991914,1,5.979131072016772
5,19-May-2017,1,2,stim.wav,0,15,3346,1.3431019341584096,1,5.979131072016772
5,19-May-2017,1,2,stim.wav,0,16,3808,2.3357900101983966,1,5.979131072016772
5,19-May-2017,1,2,stim.wav,0,17,4322,-3.1622766927104347,1,5.979131072016772
5,19-May-2017,1,2,stim.wav,0,18,4895,-4.157745806483798,1,5.979131072016772
5,19-May-2017,1,2,stim.wav,0,19,5534,3.537873056018845,1,5.979131072016772
5,19-May-2017,1,2,stim.wav,0,20,6245,2.1579162138656853,1,5.979131072016772
5,19-May-2017,1,2,stim.wav,0,21,7037,-2.820333973636421,1,5.979131072016772
5,19-May-2017,1,2,stim.wav,0,22,7920,3.284180889963059,1,5.979131072016772
5,19-May-2017,1,2,stim.wav,0,23,8904,-2.3728133712421142,1,5.979131072016772
5,19-May-2017,1,2,stim.wav,0,24,10000,0.9923446465337509,1,5.979131072016772
5,19-May-2017,1,2,stim.wav,1,0,100,-8.633141073250561,0,5.979131072016772
5,19-May-2017,1,2,stim.wav,1,1,191,-2.8067814424756854,0,5.979131072016772
5,19-May-2017,1,2,stim.wav,1,2,293,6.0197439148579885,0,5.979131072016772
5,19-May-2017,1,2,stim.wav,1,3,406,-7.603493023900185,0,5.979131072016772
5,19-May-2017,1,2,stim.wav,1,4,533,5.885314964846776,0,5.979131072016772
5,19-May-2017,1,2,stim.wav,1,5,673,3.2234395877899846,0,5.979131072016772
5,19-May-2017,1,2,stim.wav,1,6,830,2.335562086369122,0,5.979131072016772
5,19-May-2017,1,2,stim.wav,1,7,1004,-4.2944487188066915,0,5.979131072016772
5,19-May-2017,1,2,stim.wav,1,8,1199,-2.976532022382692,0,5.979131072016772
5,19-May-2017,1,2,stim.wav,1,9,1416,-2.0686773773582385,0,5.979131072016772
5,19-May-2017,1,2,stim.wav,1,10,1657,7.712980723277053,0,5.979131072016772
5,19-May-2017,1,2,stim.wav,1,11,1926,2.119783810404896,0,5.979131072016772
5,19-May-2017,1,2,stim.wav,1,12,2226,0.9458023729121039,0,5.979131072016772
5,19-May-2017,1,2,stim.wav,1,13,2560,-4.231151658419396,0,5.979131072016772
5,19-May-2017,1,2,stim.wav,1,14,2932,0.4759997950798869,0,5.979131072016772
5,19-May-2017,1,2,stim.wav,1,15,3346,-0.01476351013691779,0,5.979131072016772
5,19-May-2017,1,2,stim.wav,1,16,3808,-1.7725043971752428,0,5.979131072016772
5,19-May-2017,1,2,stim.wav,1,17,4322,-3.307822645641859,0,5.979131072016772
5,19-May-2017,1,2,stim.wav,1,18,4895,-3.067844288522395,0,5.979131072016772
5,19-May-2017,1,2,stim.wav,1,19,5534,6.0115075167535075,0,5.979131072016772
5,19-May-2017,1,2,stim.wav,1,20,6245,4.67360450793081,0,5.979131072016772
5,19-May-2017,1,2,stim.wav,1,21,7037,-2.6627162805227145,0,5.979131072016772
5,19-May-2017,1,2,stim.wav,1,22,7920,2.5646277413803893,0,5.979131072016772
5,19-May-2017,1,2,stim.wav,1,23,8904,-0.7660362033317925,0,5.979131072016772
5,19-May-2017,1,2,stim.wav,1,24,10000,2.7248452057453694,0,5.979131072016772
5,19-May-2017,1,3,stim.wav,0,0,100,-1.5261293074006488,1,16.842343612190117
5,19-May-2017,1,3,stim.wav,0,1,191,-3.697781651739235,1,16.842343612190117
5,19-May-2017,1,3,stim.wav,0,2,293,1.6059870868718142,1,16.842343612190117
5,19-May-2017,1,3,stim.wav,0,3,406,3.466377688976424,1,16.842343612190117
5,19-May-2017,1,3,stim.wav,0,4,533,-5.0409039687347565,1,16.842343612190117
5,19-May-2017,1,3,stim.wav,0,5,673,2.5247354579890615,1,16.842343612190117
5,19-May-2017,1,3,stim.wav,0,6,830,2.2028747418287598,1,16.842343612190117
5,19-May-2017,1,3,stim.wav,0,7,1004,2.2549201660393234,1,16.842343612190117
5,19-May-2017,1,3,stim.wav,0,8,1199,0.33586545963119707,1,16.842343612190117
5,19-May-2017,1,3,stim.wav,0,9,1416,0.7488721992241891,1,16.842343612190117
5,19-May-2017,1,3,stim.wav,0,10,1657,10.002489383704772,1,16.842343612190117
5,19-May-2017,1,3,stim.wav,0,11,1926,9.984687216903497,1,16.842343612190117
5,19-May-2017,1,3,stim.wav,0,12,2226,8.64391766196855,1,16.842343612190117
5,19-May-2017,1,3,stim.wav,0,13,2560,8.717433046895222,1,16.842343612190117
5,19-May-2017,1,3,stim.wav,0,14,2932,-2.336092048496863,1,16.842343612190117
5,19-May-2017,1,3,stim.wav,0,15,3346,-0.9841146658368515,1,16.842343612190117
5,19-May-2017,1,3,stim.wav,0,16,3808,-3.515541447404927,1,16.842343612190117
5,19-May-2017,1,3,stim.wav,0,17,4322,-4.686356398161412,1,16.842343612190117
5,19-May-2017,1,3,stim.wav,0,18,4895,-1.3775541021019748,1,16.842343612190117
5,19-May-2017,1,3,stim.wav,0,19,5534,2.320639025275571,1,16.842343612190117
5,19-May-2017,1,3,stim.wav,0,20,6245,-1.9031960855100833,1,16.842343612190117
5,19-May-2017,1,3,stim.wav,0,21,7037,0.39561919119108147,1,16.842343612190117
5,19-May-2017,1,3,stim.wav,0,22,7920,2.2960934130839132,1,16.842343612190117
5,19-May-2017,1,3,stim.wav,0,23,8904,1.1999437350350173,1,16.842343612190117
5,19-May-2017,1,3,stim.wav,0,24,10000,-4.886432947981953,1,16.842343612190117
5,19-May-2017,1,3,stim.wav,1,0,100,-4.220701169434547,0,16.842343612190117
5,19-May-2017,1,3,stim.wav,1,1,191,3.0113997408945874,0,16.842343612190117
5,19-May-2017,1,3,stim.wav,1,2,293,2.648036578187037,0,16.842343612190117
5,19-May-2017,1,3,stim.wav,1,3,406,1.7061761605931458,0,16.842343612190117
5,19-May-2017,1,3,stim.wav,1,4,533,-4.3969642448722395,0,16.842343612190117
5,19-May-2017,1,3,stim.wav,1,5,673,10.086473263644516,0,16.842343612190117
5,19-May-2017,1,3,stim.wav,1,6,830,-3.2124064339871303,0,16.842343612190117
5,19-May-2017,1,3,stim.wav,1,7,1004,3.413292501254057,0,16.842343612190117
5,19-May-2017,1,3,stim.wav,1,8,1199,3.311864883554132,0,16.842343612190117
5,19-May-2017,1,3,stim.wav,1,9,1416,4.663062230761855,0,16.842343612190117
5,19-May-2017,1,3,stim.wav,1,10,1657,-2.020653058085306,0,16.842343612190117
5,19-May-2017,1,3,stim.wav,1,11,1926,-2.1382053449223957,0,16.842343612190117
5,19-May-2017,1,3,stim.wav,1,12,2226,1.196463357614118,0,16.842343612190117
5,19-May-2017,1,3,stim.wav,1,13,2560,1.6695071422200594,0,16.842343612190117
5,19-May-2017,1,3,stim.wav,1,14,2932,-3.946051452337029,0,16.842343612190117
5,19-May-2017,1,3,stim.wav,1,15,3346,-7.42334254948002,0,16.842343612190117
5,19-May-2017,1,3,stim.wav,1,16,3808,5.246928800661462,0,16.842343612190117
5,19-May-2017,1,3,stim.wav,1,17,4322,4.024418986342658,0,16.842343612190117
5,19-May-2017,1,3,stim.wav,1,18,4895,-6.047989572217909,0,16.842343612190117
5,19-May-2017,1,3,stim.wav,1,19,5534,4.420822594030667,0,16.842343612190117
5,19-May-2017,1,3,stim.wav,1,20,6245,-3.476459954601803,0,16.842343612190117
5,19-May-2017,1,3,stim.wav,1,21,7037,2.726295849995485,0,16.842343612190117
5,19-May-2017,1,3,stim.wav,1,22,7920,0.4327894049057919,0,16.842343612190117
5,19-May-2017,1,3,stim.wav,1,23,8904,-1.3085655669230134,0,16.842343612190117
5,19-May-2017,1,3,stim.wav,1,24,10000,-1.7210664103468363,0,16.842343612190117
5,19-May-2017,1,4,stim.wav,0,0,100,5.562956014449655,1,9.176385018190476
5,19-May-2017,1,4,stim.wav,0,1,191,2.1552327023680395,1,9.176385018190476
5,19-May-2017,1,4,stim.wav,0,2,293,0.4241941025651329,1,9.176385018190476
5,19-May-2017,1,4,stim.wav,0,3,406,1.1847868578913687,1,9.176385018190476
5,19-May-2017,1,4,stim.wav,0,4,533,7.136078075134282,1,9.176385018190476
5,19-May-2017,1,4,stim.wav,0,5,673,4.970399558975599,1,9.176385018190476
5,19-May-2017,1,4,stim.wav,0,6,830,-3.350153252591345,1,9.176385018190476
5,19-May-2017,1,4,stim.wav,0,7,1004,-0.9716824621888267,1,9.176385018190476
5,19-May-2017,1,4,stim.wav,0,8,1199,2.626250832272095,1,9.176385018190476
5,19-May-2017,1,4,stim.wav,0,9,1416,-6.70928518327835,1,9.176385018190476
5,19-May-2017,1,4,stim.wav,0,10,1657,2.6172501889117776,1,9.176385018190476
5,19-May-2017,1,4,stim.wav,0,11,1926,4.393482091818281,1,9.176385018190476
5,19-May-2017,1,4,stim.wav,0,12,2226,5.9973217015641564,1,9.176385018190476
5,19-May-2017,1,4,stim.wav,0,13,2560,2.504069793026627,1,9.176385018190476
5,19-May-2017,1,4,stim.wav,0,14,2932,-0.32418794336522083,1,9.176385018190476
5,19-May-2017,1,4,stim.wav,0,15,3346,0.3065983506569651,1,9.176385018190476
5,19-May-2017,1,4,stim.wav,0,16,3808,2.604260009787053,1,9.176385018190476
5,19-May-2017,1,4,stim.wav,0,17,4322,2.3287165182697933,1,9.176385018190476
5,19-May-2017,1,4,stim.wav,0,18,4895,1.0980381264979469,1,9.176385018190476
5,19-May-2017,1,4,stim.wav,0,19,5534,4.99135800588776,1,9.176385018190476
5,19-May-2017,1,4,stim.wav,0,20,6245,0.02171589976993083,1,9.176385018190476
5,19-May-2017,1,4,stim.wav,0,21,7037,0.7137580067374,1,9.176385018190476
5,19-May-2017,1,4,stim.wav,0,22,7920,4.852002719896799,1,9.176385018190476
5,19-May-2017,1,4,stim.wav,0,23,8904,2.3388151518531335,1,9.176385018190476
5,19-May-2017,1,4,stim.wav,0,24,10000,7.567637265989738,1,9.176385018190476
5,19-May-2017,1,4,stim.wav,1,0,100,-4.948881895834719,0,9.176385018190476
5,19-May-2017,1,4,stim.wav,1,1,191,-6.7117580377034205,0,9.176385018190476
5,19-May-2017,1,4,stim.wav,1,2,293,-9.535925854388562,0,9.176385018190476
5,19-May-2017,1,4,stim.wav,1,3,406,4.926548004929196,0,9.176385018190476
5,19-May-2017,1,4,stim.wav,1,4,533,-2.4728609284224974,0,9.176385018190476
5,19-May-2017,1,4,stim.wav,1,5,673,-4.81491636286332,0,9.176385018190476
5,19-May-2017,1,4,stim.wav,1,6,830,3.111718879327899,0,9.176385018190476
5,19-May-2017,1,4,stim.wav,1,7,1004,-9.758773355198839,0,9.176385018190476
5,19-May-2017,1,4,stim.wav,1,8,1199,2.1554567974449097,0,9.176385018190476
5,19-May-2017,1,4,stim.wav,1,9,1416,0.8471602647017578,0,9.176385018190476
5,19-May-2017,1,4,stim.wav,1,10,1657,0.7177030714343268,0,9.176385018190476
5,19-May-2017,1,4,stim.wav,1,11,1926,4.13893484182533,0,9.176385018190476
5,19-May-2017,1,4,stim.wav,1,12,2226,-7.78398442945514,0,9.176385018190476
5,19-May-2017,1,4,stim.wav,1,13,2560,2.3356139603084665,0,9.176385018190476
5,19-May-2017,1,4,stim.wav,1,14,2932,-6.596220984903979,0,9.176385018190476
5,19-May-2017,1,4,stim.wav,1,15,3346,-2.7356096081307886,0,9.176385018190476
5,19-May-2017,1,4,stim.wav,1,16,3808,-3.0771383669656904,0,9.176385018190476
5,19-May-2017,1,4,stim.wav,1,17,4322,-0.5329513487841262,0,9.176385018190476
5,19-May-2017,1,4,stim.wav,1,18,4895,2.2532493895774843,0,9.176385018190476
5,19-May-2017,1,4,stim.wav,1,19,5534,5.598775076533181,0,9.176385018190476
5,19-May-2017,1,4,stim.wav,1,20,6245,-2.644194164633163,0,9.176385018190476
5,19-May-2017,1,4,stim.wav,1,21,7037,4.768145468930557,0,9.176385018190476
5,19-May-2017,1,4,stim.wav,1,22,7920,-1.62749733274682,0,9.176385018190476
5,19-May-2017,1,4,stim.wav,1,23,8904,-2.381619074751032,0,9.176385018190476
5,19-May-2017,1,4,stim.wav,1,24,10000,1.9758543489776237,0,9.176385018190476
5,19-May-2017,1,5,stim.wav,0,0,100,-7.9292053010587535,0,3.5719052411974443
5,19-May-2017,1,5,stim.wav,0,1,191,0.12129005627634296,0,3.5719052411974443
5,19-May-2017,1,5,stim.wav,0,2,293,-7.467154136507823,0,3.5719052411974443
5,19-May-2017,1,5,stim.wav,0,3,406,5.381861624129462,0,3.5719052411974443
5,19-May-2017,1,5,stim.wav,0,4,533,9.465552726099801,0,3.5719052411974443
5,19-May-2017,1,5,stim.wav,0,5,673,7.499171437993092,0,3.5719052411974443
5,19-May-2017,1,5,stim.wav,0,6,830,6.58473264390901,0,3.5719052411974443
5,19-May-2017,1,5,stim.wav,0,7,1004,-6.050267528039713,0,3.5719052411974443
5,19-May-2017,1,5,stim.wav,0,8,1199,1.6943409500287043,0,3.5719052411974443
5,19-May-2017,1,5,stim.wav,0,9,1416,6.991281852745398,0,3.5719052411974443
5,19-May-2017,1,5,stim.wav,0,10,1657,-6.8141135816146905,0,3.5719052411974443
5,19-May-2017,1,5,stim.wav,0,11,1926,4.872043882527524,0,3.5719052411974443
5,19-May-2017,1,5,stim.wav,0,12,2226,7.530563156917294,0,3.5719052411974443
5,19-May-2017,1,5,stim.wav,0,13,2560,1.481143673962768,0,3.5719052411974443
5,19-May-2017,1,5,stim.wav,0,14,2932,2.334001351987544,0,3.5719052411974443
5,19-May-2017,1,5,stim.wav,0,15,3346,2.7136175096728317,0,3.5719052411974443
5,19-May-2017,1,5,stim.wav,0,16,3808,5.217214580936376,0,3.5719052411974443
5,19-May-2017,1,5,stim.wav,0,17,4322,-1.1136560573057754,0,3.5719052411974443
5,19-May-2017,1,5,stim.wav,0,18,4895,-0.03558190030151887,0,3.5719052411974443
5,19-May-2017,1,5,stim.wav,0,19,5534,2.9782160523776,0,3.5719052411974443
5,19-May-2017,1,5,stim.wav,0,20,6245,3.2450714539315695,0,3.5719052411974443
5,19-May-2017,1,5,stim.wav,0,21,7037,1.6906393225840186,0,3.5719052411974443
5,19-May-2017,1,5,stim.wav,0,22,7920,4.4614904111984,0,3.5719052411974443
5,19-May-2017,1,5,stim.wav,0,23,8904,-8.333032179173296,0,3.5719052411974443
5,19-May-2017,1,5,stim.wav,0,24,10000,-2.184520962412456,0,3.5719052411974443
5,19-May-2017,1,5,stim.wav,1,0,100,-8.608934174076134,1,3.5719052411974443
5,19-May-2017,1,5,stim.wav,1,1,191,4.870208729101528,1,3.5719052411974443
5,19-May-2017,1,5,stim.wav,1,2,293,11.32596620197971,1,3.5719052411974443
5,19-May-2017,1,5,stim.wav,1,3,406,2.4861276456862806,1,3.5719052411974443
5,19-May-2017,1,5,stim.wav,1,4,533,-4.939062329181435,1,3.5719052411974443
5,19-May-2017,1,5,stim.wav,1,5,673,8.47422476722604,1,3.5719052411974443
5,19-May-2017,1,5,stim.wav,1,6,830,-1.9916424048885322,1,3.5719052411974443
5,19-May-2017,1,5,stim.wav,1,7,1004,-6.456302714211375,1,3.5719052411974443
5,19-May-2017,1,5,stim.wav,1,8,1199,-5.964592993536551,1,3.5719052411974443
5,19-May-2017,1,5,stim.wav,1,9,1416,-9.22622706343093,1,3.5719052411974443
5,19-May-2017,1,5,stim.wav,1,10,1657,-5.491291579348488,1,3.5719052411974443
5,19-May-2017,1,5,stim.wav,1,11,1926,-5.049860941157306,1,3.5719052411974443
5,19-May-2017,1,5,stim.wav,1,12,2226,-0.7912839479596384,1,3.5719052411974443
5,19-May-2017,1,5,stim.wav,1,13,2560,-2.425862452978654,1,3.5719052411974443
5,19-May-2017,1,5,stim.wav,1,14,2932,-5.220007669843975,1,3.5719052411974443
5,19-May-2017,1,5,stim.wav,1,15,3346,-4.466167937064461,1,3.5719052411974443
5,19-May-2017,1,5,stim.wav,1,16,3808,1.8469420368255753,1,3.5719052411974443
5,19-May-2017,1,5,stim.wav,1,17,4322,1.3167095810507454,1,3.5719052411974443
5,19-May-2017,1,5,stim.wav,1,18,4895,-2.6188444532704795,1,3.5719052411974443
5,19-May-2017,1,5,stim.wav,1,19,5534,-7.953917936050817,1,3.5719052411974443
5,19-May-2017,1,5,stim.wav,1,20,6245,0.947592673609007,1,3.5719052411974443
5,19-May-2017,1,5,stim.wav,1,21,7037,1.7092772127848161,1,3.5719052411974443
5,19-May-2017,1,5,stim.wav,1,22,7920,1.3846362002271024,1,3.5719052411974443
5,19-May-2017,1,5,stim.wav,1,23,8904,-0.5360368316399684,1,3.5719052411974443
5,19-May-2017,1,5,stim.wav,1,24,10000,3.0660889482387703,1,3.5719052411974443
5,19-May-2017,1,6,stim.wav,0,0,100,3.5192225624152105,0,2.2342469512049097
5,19-May-2017,1,6,stim.wav,0,1,191,5.672070880294141,0,2.2342469512049097
5,19-May-2017,1,6,stim.wav,0,2,293,-1.01766742379199,0,2.2342469512049097
5,19-May-2017,1,6,stim.wav,0,3,406,6.297289250919393,0,2.2342469512049097
5,19-May-2017,1,6,stim.wav,0,4,533,6.950669239682261,0,2.2342469512049097
5,19-May-2017,1,6,stim.wav,0,5,673,-7.868022523591365,0,2.2342469512049097
5,19-May-2017,1,6,stim.wav,0,6,830,8.14596521352057,0,2.2342469512049097
5,19-May-2017,1,6,stim.wav,0,7,1004,-0.7128903850693148,0,2.2342469512049097
5,19-May-2017,1,6,stim.wav,0,8,1199,7.182801542617377,0,2.2342469512049097
5,19-May-2017,1,6,stim.wav,0,9,1416,7.964973276201123,0,2.2342469512049097
5,19-May-2017,1,6,stim.wav,0,10,1657,5.995993006947246,0,2.2342469512049097
5,19-May-2017,1,6,stim.wav,0,11,1926,4.162621087535461,0,2.2342469512049097
5,19-May-2017,1,6,stim.wav,0,12,2226,-5.642968567112543,0,2.2342469512049097
5,19-May-2017,1,6,stim.wav,0,13,2560,0.4799629917672936,0,2.2342469512049097
5,19-May-2017,1,6,stim.wav,0,14,2932,7.944348936717731,0,2.2342469512049097
5,19-May-2017,1,6,stim.wav,0,15,3346,6.771689732123136,0,2.2342469512049097
5,19-May-2017,1,6,stim.wav,0,16,3808,-2.973461381273119,0,2.2342469512049097
5,19-May-2017,1,6,stim.wav,0,17,4322,3.681083014412292,0,2.2342469512049097
5,19-May-2017,1,6,stim.wav,0,18,4895,3.6439749222421964,0,2.2342469512049097
5,19-May-2017,1,6,stim.wav,0,19,5534,3.235741338198018,0,2.2342469512049097
5,19-May-2017,1,6,stim.wav,0,20,6245,1.2175965245296336,0,2.2342469512049097
5,19-May-2017,1,6,stim.wav,0,21,7037,5.102517169745533,0,2.2342469512049097
5,19-May-2017,1,6,stim.wav,0,22,7920,-9.581371019483884,0,2.2342469512049097
5,19-May-2017,1,6,stim.wav,0,23,8904,-5.327162901167217,0,2.2342469512049097
5,19-May-2017,1,6,stim.wav,0,24,10000,8.812123145077443,0,2.2342469512049097
5,19-May-2017,1,6,stim.wav,1,0,100,-10.14983162003844,1,2.2342469512049097
5,19-May-2017,1,6,stim.wav,1,1,191,3.455914348224934,1,2.2342469512049097
5,19-May-2017,1,6,stim.wav,1,2,293,-9.500798439167458,1,2.2342469512049097
5,19-May-2017,1,6,stim.wav,1,3,406,-9.782104282803893,1,2.2342469512049097
5,19-May-2017,1,6,stim.wav,1,4,533,-6.243367667541415,1,2.2342469512049097
5,19-May-2017,1,6,stim.wav,1,5,673,3.3373312009244493,1,2.2342469512049097
5,19-May-2017,1,6,stim.wav,1,6,830,1.5262089416212117,1,2.2342469512049097
5,19-May-2017,1,6,stim.wav,1,7,1004,-2.7668547748673826,1,2.2342469512049097
5,19-May-2017,1,6,stim.wav,1,8,1199,-1.8045418817633982,1,2.2342469512049097
5,19-May-2017,1,6,stim.wav,1,9,1416,4.450513387308931,1,2.2342469512049097
5,19-May-2017,1,6,stim.wav,1,10,1657,2.1363922026085342,1,2.2342469512049097
5,19-May-2017,1,6,stim.wav,1,11,1926,-1.8713523285944982,1,2.2342469512049097
5,19-May-2017,1,6,stim.wav,1,12,2226,2.4716375211164183,1,2.2342469512049097
5,19-May-2017,1,6,stim.wav,1,13,2560,0.12791218933952683,1,2.2342469512049097
5,19-May-2017,1,6,stim.wav,1,14,2932,7.09545426065656,1,2.2342469512049097
5,19-May-2017,1,6,stim.wav,1,15,3346,0.3419964174126871,1,2.2342469512049097
5,19-May-2017,1,6,stim.wav,1,16,3808,-8.71896923825328,1,2.2342469512049097
5,19-May-2017,1,6,stim.wav,1,17,4322,1.900617514243146,1,2.2342469512049097
5,19-May-2017,1,6,stim.wav,1,18,4895,1.0507421815988782,1,2.2342469512049097
5,19-May-2017,1,6,stim.wav,1,19,5534,4.0600188454296005,1,2.2342469512049097
5,19-May-2017,1,6,stim.wav,1,20,6245,-3.7718936027808176,1,2.2342469512049097
5,19-May-2017,1,6,stim.wav,1,21,7037,0.8466265029458104,1,2.2342469512049097
5,19-May-2017,1,6,stim.wav,1,22,7920,-2.1649809642784557,1,2.2342469512049097
5,19-May-2017,1,6,stim.wav,1,23,8904,2.9107703394818407,1,2.2342469512049097
5,19-May-2017,1,6,stim.wav,1,24,10000,-5.159050227503668,1,2.2342469512049097
5,19-May-2017,1,7,stim.wav,0,0,100,-1.342282288978669,1,2.1816553641892904
5,19-May-2017,1,7,stim.wav,0,1,191,2.5780347251073565,1,2.1816553641892904
5,19-May-2017,1,7,stim.wav,0,2,293,-0.1832476912237503,1,2.1816553641892904
5,19-May-2017,1,7,stim.wav,0,3,406,-6.06300078239669,1,2.1816553641892904
5,19-May-2017,1,7,stim.wav,0,4,533,-0.2596609108889019,1,2.1816553641892904
5,19-May-2017,1,7,stim.wav,0,5,673,-7.361718868245345,1,2.1816553641892904
5,19-May-2017,1,7,stim.wav,0,6,830,-0.177081414516348,1,2.1816553641892904
5,19-May-2017,1,7,stim.wav,0,7,1004,3.9614234222805256,1,2.1816553641892904
5,19-May-2017,1,7,stim.wav,0,8,1199,-2.145583002174429,1,2.1816553641892904
5,19-May-2017,1,7,stim.wav,0,9,1416,-2.362250410958193,1,2.1816553641892904
5,19-May-2017,1,7,stim.wav,0,10,1657,-3.788160448545437,1,2.1816553641892904
5,19-May-2017,1,7,stim.wav,0,11,1926,2.483940375444153,1,2.1816553641892904
5,19-May-2017,1,7,stim.wav,0,12,2226,-9.689452064853208,1,2.1816553641892904
5,19-May-2017,1,7,stim.wav,0,13,2560,-9.268319601328477,1,2.1816553641892904
5,19-May-2017,1,7,stim.wav,0,14,2932,-5.359769833183278,1,2.1816553641892904
5,19-May-2017,1,7,stim.wav,0,15,3346,-0.3645805291437098,1,2.1816553641892904
5,19-May-2017,1,7,stim.wav,0,16,3808,-9.81972706285979,1,2.1816553641892904
5,19-May-2017,1,7,stim.wav,0,17,4322,2.5754405931578024,1,2.1816553641892904
5,19-May-2017,1,7,stim.wav,0,18,4895,-2.992944004766414,1,2.1816553641892904
5,19-May-2017,1,7,stim.wav,0,19,5534,-3.577991276234713,1,2.1816553641892904
5,19-May-2017,1,7,stim.wav,0,20,6245,5.704366225082862,1,2.1816553641892904
5,19-May-2017,1,7,stim.wav,0,21,7037,-2.4389871796672913,1,2.1816553641892904
5,19-May-2017,1,7,stim.wav,0,22,7920,10.99737811515017,1,2.1816553641892904
5,19-May-2017,1,7,stim.wav,0,23,8904,2.257020668175925,1,2.1816553641892904
5,19-May-2017,1,7,stim.wav,0,24,10000,-11.203932517149788,1,2.1816553641892904
5,19-May-2017,1,7,stim.wav,1,0,100,4.04095050916181,0,2.1816553641892904
5,19-May-2017,1,7,stim.wav,1,1,191,-1.8369903401077052,0,2.1816553641892904
5,19-May-2017,1,7,stim.wav,1,2,293,3.1459606372532063,0,2.1816553641892904
5,19-May-2017,1,7,stim.wav,1,3,406,-1.912535528944923,0,2.1816553641892904
5,19-May-2017,1,7,stim.wav,1,4,533,10.415542078903018,0,2.1816553641892904
5,19-May-2017,1,7,stim.wav,1,5,673,4.4346079543381105,0,2.1816553641892904
5,19-May-2017,1,7,stim.wav,1,6,830,-10.906467760950356,0,2.1816553641892904
5,19-May-2017,1,7,stim.wav,1,7,1004,-1.852418174698656,0,2.1816553641892904
5,19-May-2017,1,7,stim.wav,1,8,1199,-4.99682967481963,0,2.1816553641892904
5,19-May-2017,1,7,stim.wav,1,9,1416,1.9792527998631546,0,2.1816553641892904
5,19-May-2017,1,7,stim.wav,1,10,1657,-2.4260119493671546,0,2.1816553641892904
5,19-May-2017,1,7,stim.wav,1,11,1926,11.561026465604659,0,2.1816553641892904
5,19-May-2017,1,7,stim.wav,1,12,2226,-6.568662489027089,0,2.1816553641892904
5,19-May-2017,1,7,stim.wav,1,13,2560,-5.563778985406803,0,2.1816553641892904
5,19-May-2017,1,7,stim.wav,1,14,2932,-6.887849302259056,0,2.1816553641892904
5,19-May-2017,1,7,stim.wav,1,15,3346,1.1513385315633937,0,2.1816553641892904
5,19-May-2017,1,7,stim.wav,1,16,3808,-4.361361573573882,0,2.1816553641892904
5,19-May-2017,1,7,stim.wav,1,17,4322,-5.502862237046432,0,2.1816553641892904
5,19-May-2017,1,7,stim.wav,1,18,4895,6.441191410605299,0,2.1816553641892904
5,19-May-2017,1,7,stim.wav,1,19,5534,-6.529656115752278,0,2.1816553641892904
5,19-May-2017,1,7,stim.wav,1,20,6245,7.470091635109714,0,2.1816553641892904
5,19-May-2017,1,7,stim.wav,1,21,7037,7.590192478646234,0,2.1816553641892904
5,19-May-2017,1,7,stim.wav,1,22,7920,-0.9882544779577922,0,2.1816553641892904
5,19-May-2017,1,7,stim.wav,1,23,8904,-9.640660202895155,0,2.1816553641892904
5,19-May-2017,1,7,stim.wav,1,24,10000,-2.3756946914283823,0,2.1816553641892904
5,19-May-2017,1,8,stim.wav,0,0,100,1.324826267132234,1,9.877615073497465
5,19-May-2017,1,8,stim.wav,0,1,191,0.5611384549529367,1,9.877615073497465
5,19-May-2017,1,8,stim.wav,0,2,293,-2.8310996464486844,1,9.877615073497465
5,19-May-2017,1,8,stim.wav,0,3,406,5.439124536103945,1,9.877615073497465
5,19-May-2017,1,8,stim.wav,0,4,533,-2.070847487098244,1,9.877615073497465
5,19-May-2017,1,8,stim.wav,0,5,673,1.2992107244438211,1,9.877615073497465
5,19-May-2017,1,8,stim.wav,0,6,830,4.056879228513044,1,9.877615073497465
5,19-May-2017,1,8,stim.wav,0,7,1004,3.615146180340047,1,9.877615073497465
5,19-May-2017,1,8,stim.wav,0,8,1199,7.378170629320101,1,9.877615073497465
5,19-May-2017,1,8,stim.wav,0,9,1416,-5.46288872329365,1,9.877615073497465
5,19-May-2017,1,8,stim.wav,0,10,1657,-4.447774444811833,1,9.877615073497465
5,19-May-2017,1,8,stim.wav,0,11,1926,-2.7229001787144096,1,9.877615073497465
5,19-May-2017,1,8,stim.wav,0,12,2226,5.567846878269496,1,9.877615073497465
5,19-May-2017,1,8,stim.wav,0,13,2560,-1.9395264385917095,1,9.877615073497465
5,19-May-2017,1,8,stim.wav,0,14,2932,-5.018683525514471,1,9.877615073497465
5,19-May-2017,1,8,stim.wav,0,15,3346,-0.6261825802192577,1,9.877615073497465
5,19-May-2017,1,8,stim.wav,0,16,3808,-3.9493661554870134,1,9.877615073497465
5,19-May-2017,1,8,stim.wav,0,17,4322,2.396454141114279,1,9.877615073497465
5,19-May-2017,1,8,stim.wav,0,18,4895,4.0895532050292225,1,9.877615073497465
5,19-May-2017,1,8,stim.wav,0,19,5534,1.2609615915539452,1,9.877615073497465
5,19-May-2017,1,8,stim.wav,0,20,6245,0.39360089437591256,1,9.877615073497465
5,19-May-2017,1,8,stim.wav,0,21,7037,-6.021231658907205,1,9.877615073497465
5,19-May-2017,1,8,stim.wav,0,22,7920,-5.588669254431114,1,9.877615073497465
5,19-May-2017,1,8,stim.wav,0,23,8904,-2.4181702230342967,1,9.877615073497465
5,19-May-2017,1,8,stim.wav,0,24,10000,-7.326228275214167,1,9.877615073497465
5,19-May-2017,1,8,stim.wav,1,0,100,1.2541889396635706,0,9.877615073497465
5,19-May-2017,1,8,stim.wav,1,1,191,4.236406977483391,0,9.877615073497465
5,19-May-2017,1,8,stim.wav,1,2,293,-3.1318831295454825,0,9.877615073497465
5,19-May-2017,1,8,stim.wav,1,3,406,-3.120533224072673,0,9.877615073497465
5,19-May-2017,1,8,stim.wav,1,4,533,0.3912680283241672,0,9.877615073497465
5,19-May-2017,1,8,stim.wav,1,5,673,-2.190576735019692,0,9.877615073497465
5,19-May-2017,1,8,stim.wav,1,6,830,0.36043817356366836,0,9.877615073497465
5,19-May-2017,1,8,stim.wav,1,7,1004,7.702751602308605,0,9.877615073497465
5,19-May-2017,1,8,stim.wav,1,8,1199,-5.145462044636563,0,9.877615073497465
5,19-May-2017,1,8,stim.wav,1,9,1416,-5.649880595532841,0,9.877615073497465
5,19-May-2017,1,8,stim.wav,1,10,1657,-2.5889288232029943,0,9.877615073497465
5,19-May-2017,1,8,stim.wav,1,11,1926,4.286269278587198,0,9.877615073497465
5,19-May-2017,1,8,stim.wav,1,12,2226,11.64867274506603,0,9.877615073497465
5,19-May-2017,1,8,stim.wav,1,13,2560,0.49156354204781877,0,9.877615073497465
5,19-May-2017,1,8,stim.wav,1,14,2932,-1.92794529569098,0,9.877615073497465
5,19-May-2017,1,8,stim.wav,1,15,3346,-5.4852593741430375,0,9.877615073497465
5,19-May-2017,1,8,stim.wav,1,16,3808,7.632300092544654,0,9.877615073497465
5,19-May-2017,1,8,stim.wav,1,17,4322,1.3720149334729062,0,9.877615073497465
5,19-May-2017,1,8,stim.wav,1,18,4895,-2.4643897459172552,0,9.877615073497465
5,19-May-2017,1,8,stim.wav,1,19,5534,3.3797892651192383,0,9.877615073497465
5,19-May-2017,1,8,stim.wav,1,20,6245,1.0454509039887074,0,9.877615073497465
5,19-May-2017,1,8,stim.wav,1,21,7037,-4.144544957019308,0,9.877615073497465
5,19-May-2017,1,8,stim.wav,1,22,7920,-5.04937077932146,0,9.877615073497465
5,19-May-2017,1,8,stim.wav,1,23,8904,5.351498164464671,0,9.877615073497465
5,19-May-2017,1,8,stim.wav,1,24,10000,10.718178430455323,0,9.877615073497465
5,19-May-2017,1,9,stim.wav,0,0,100,-2.5561845314219216,0,1.4804903115268848
5,19-May-2017,1,9,stim.wav,0,1,191,-6.800445436920626,0,1.4804903115268848
5,19-May-2017,1,9,stim.wav,0,2,293,4.396544336076937,0,1.4804903115268848
5,19-May-2017,1,9,stim.wav,0,3,406,-3.131602755002322,0,1.4804903115268848
5,19-May-2017,1,9,stim.wav,0,4,533,-1.4684883272332088,0,1.4804903115268848
5,19-May-2017,1,9,stim.wav,0,5,673,-2.562581304712867,0,1.4804903115268848
5,19-May-2017,1,9,stim.wav,0,6,830,10.357912408106937,0,1.4804903115268848
5,19-May-2017,1,9,stim.wav,0,7,1004,-2.042142449581651,0,1.4804903115268848
5,19-May-2017,1,9,stim.wav,0,8,1199,3.0189878803803754,0,1.4804903115268848
5,19-May-2017,1,9,stim.wav,0,9,1416,-3.613741602100144,0,1.4804903115268848
5,19-May-2017,1,9,stim.wav,0,10,1657,9.410899778943532,0,1.4804903115268848
5,19-May-2017,1,9,stim.wav,0,11,1926,-4.987942915694743,0,1.4804903115268848
5,19-May-2017,1,9,stim.wav,0,12,2226,6.113645838789928,0,1.4804903115268848
5,19-May-2017,1,9,stim.wav,0,13,2560,-1.4631064759194223,0,1.4804903115268848
5,19-May-2017,1,9,stim.wav,0,14,2932,7.840395299469957,0,1.4804903115268848
5,19-May-2017,1,9,stim.wav,0,15,3346,-3.463200035555611,0,1.4804903115268848
5,19-May-2017,1,9,stim.wav,0,16,3808,9.483990009714192,0,1.4804903115268848
5,19-May-2017,1,9,stim.wav,0,17,4322,-0.3544700875492341,0,1.4804903115268848
5,19-May-2017,1,9,stim.wav,0,18,4895,2.7700890184010536,0,1.4804903115268848
5,19-May-2017,1,9,stim.wav,0,19,5534,7.258756147788392,0,1.4804903115268848
5,19-May-2017,1,9,stim.wav,0,20,6245,5.037878362972782,0,1.4804903115268848
5,19-May-2017,1,9,stim.wav,0,21,7037,1.3875948971003857,0,1.4804903115268848
5,19-May-2017,1,9,stim.wav,0,22,7920,3.420065211682695,0,1.4804903115268848
5,19-May-2017,1,9,stim.wav,0,23,8904,-3.4842987205216596,0,1.4804903115268848
5,19-May-2017,1,9,stim.wav,0,24,10000,-7.295925756792285,0,1.4804903115268848
5,19-May-2017,1,9,stim.wav,1,0,100,-1.1298539223100466,1,1.4804903115268848
5,19-May-2017,1,9,stim.wav,1,1,191,-0.16548087911492998,1,1.4804903115268848
5,19-May-2017,1,9,stim.wav,1,2,293,0.8097312042982134,1,1.4804903115268848
5,19-May-2017,1,9,stim.wav,1,3,406,-3.9740869846295523,1,1.4804903115268848
5,19-May-2017,1,9,stim.wav,1,4,533,-5.2051214543495465,1,1.4804903115268848
5,19-May-2017,1,9,stim.wav,1,5,673,0.4113224021768904,1,1.4804903115268848
5,19-May-2017,1,9,stim.wav,1,6,830,3.231773872751967,1,1.4804903115268848
5,19-May-2017,1,9,stim.wav,1,7,1004,-3.041229495385918,1,1.4804903115268848
5,19-May-2017,1,9,stim.wav,1,8,1199,8.446037110578846,1,1.4804903115268848
5,19-May-2017,1,9,stim.wav,1,9,1416,4.14575193888958,1,1.4804903115268848
5,19-May-2017,1,9,stim.wav,1,10,1657,0.6346993644849848,1,1.4804903115268848
5,19-May-2017,1,9,stim.wav,1,11,1926,4.061147085720989,1,1.4804903115268848
5,19-May-2017,1,9,stim.wav,1,12,2226,-2.691784568722755,1,1.4804903115268848
5,19-May-2017,1,9,stim.wav,1,13,2560,5.306011508403133,1,1.4804903115268848
5,19-May-2017,1,9,stim.wav,1,14,2932,9.414377692487005,1,1.4804903115268848
5,19-May-2017,1,9,stim.wav,1,15,3346,0.08522247842779282,1,1.4804903115268848
5,19-May-2017,1,9,stim.wav,1,16,3808,-1.1008459961988186,1,1.4804903115268848
5,19-May-2017,1,9,stim.wav,1,17,4322,4.7407166498449325,1,1.4804903115268848
5,19-May-2017,1,9,stim.wav,1,18,4895,1.2474211482805124,1,1.4804903115268848
5,19-May-2017,1,9,stim.wav,1,19,5534,1.9608817059419446,1,1.4804903115268848
5,19-May-2017,1,9,stim.wav,1,20,6245,-0.4279310257080809,1,1.4804903115268848
5,19-May-2017,1,9,stim.wav,1,21,7037,-0.9732126745655606,1,1.4804903115268848
5,19-May-2017,1,9,stim.wav,1,22,7920,7.604596222739853,1,1.4804903115268848
5,19-May-2017,1,9,stim.wav,1,23,8904,1.7227533376385806,1,1.4804903115268848
5,19-May-2017,1,9,stim.wav,1,24,10000,-0.8634762844751659,1,1.4804903115268848
5,19-May-2017,1,10,stim.wav,0,0,100,1.9080794946271191,1,2.4587825073093765
5,19-May-2017,1,10,stim.wav,0,1,191,3.2251957063729297,1,2.4587825073093765
5,19-May-2017,1,10,stim.wav,0,2,293,-4.367582576093479,1,2.4587825073093765
5,19-May-2017,1,10,stim.wav,0,3,406,0.2291871732607698,1,2.4587825073093765
5,19-May-2017,1,10,stim.wav,0,4,533,-4.235200679679148,1,2.4587825073093765
5,19-May-2017,1,10,stim.wav,0,5,673,-4.219472500345821,1,2.4587825073093765
5,19-May-2017,1,10,stim.wav,0,6,830,7.540439047691324,1,2.4587825073093765
5,19-May-2017,1,10,stim.wav,0,7,1004,0.6374266923419368,1,2.4587825073093765
5,19-May-2017,1,10,stim.wav,0,8,1199,0.8423566235275071,1,2.4587825073093765
5,19-May-2017,1,10,stim.wav,0,9,1416,-5.458770244233965,1,2.4587825073093765
5,19-May-2017,1,10,stim.wav,0,10,1657,-2.8352056455897463,1,2.4587825073093765
5,19-May-2017,1,10,stim.wav,0,11,1926,-4.210620738149369,1,2.4587825073093765
5,19-May-2017,1,10,stim.wav,0,12,2226,1.4827508517791963,1,2.4587825073093765
5,19-May-2017,1,10,stim.wav,0,13,2560,-1.185000420603478,1,2.4587825073093765
5,19-May-2017,1,10,stim.wav,0,14,2932,4.717359964883595,1,2.4587825073093765
5,19-May-2017,1,10,stim.wav,0,15,3346,-6.161945013493002,1,2.4587825073093765
5,19-May-2017,1,10,stim.wav,0,16,3808,5.696366435105479,1,2.4587825073093765
5,19-May-2017,1,10,stim.wav,0,17,4322,-3.369655058453752,1,2.4587825073093765
5,19-May-2017,1,10,stim.wav,0,18,4895,5.129283887476294,1,2.4587825073093765
5,19-May-2017,1,10,stim.wav,0,19,5534,4.382482797968619,1,2.4587825073093765
5,19-May-2017,1,10,stim.wav,0,20,6245,-6.655693642576893,1,2.4587825073093765
5,19-May-2017,1,10,stim.wav,0,21,7037,-5.408760272298279,1,2.4587825073093765
5,19-May-2017,1,10,stim.wav,0,22,7920,6.127266425753217,1,2.4587825073093765
5,19-May-2017,1,10,stim.wav,0,23,8904,3.014359856349783,1,2.4587825073093765
5,19-May-2017,1,10,stim.wav,0,24,10000,3.5479666689990315,1,2.4587825073093765
5,19-May-2017,1,10,stim.wav,1,0,100,-3.5057626639110815,0,2.4587825073093765
5,19-May-2017,1,10,stim.wav,1,1,191,-0.4610646816869508,0,2.4587825073093765
5,19-May-2017,1,10,stim.wav,1,2,293,-0.5846446894916548,0,2.4587825073093765
5,19-May-2017,1,10,stim.wav,1,3,406,3.6816703312953396,0,2.4587825073093765
5,19-May-2017,1,10,stim.wav,1,4,533,-0.6716359311073243,0,2.4587825073093765
5,19-May-2017,1,10,stim.wav,1,5,673,2.606114563883945,0,2.4587825073093765
5,19-May-2017,1,10,stim.wav,1,6,830,-5.516086638606796,0,2.4587825073093765
5,19-May-2017,1,10,stim.wav,1,7,1004,-3.37071993365691,0,2.4587825073093765
5,19-May-2017,1,10,stim.wav,1,8,1199,5.494237559739346,0,2.4587825073093765
5,19-May-2017,1,10,stim.wav,1,9,1416,8.038335207826975,0,2.4587825073093765
5,19-May-2017,1,10,stim.wav,1,10,1657,5.514754577784554,0,2.4587825073093765
5,19-May-2017,1,10,stim.wav,1,11,1926,-9.62279691688134,0,2.4587825073093765
5,19-May-2017,1,10,stim.wav,1,12,2226,-0.47291183963027694,0,2.4587825073093765
5,19-May-2017,1,10,stim.wav,1,13,2560,-6.25891742016533,0,2.4587825073093765
5,19-May-2017,1,10,stim.wav,1,14,2932,3.9325063370611577,0,2.4587825073093765
5,19-May-2017,1,10,stim.wav,1,15,3346,11.568221976120965,0,2.4587825073093765
5,19-May-2017,1,10,stim.wav,1,16,3808,8.298872936226028,0,2.4587825073093765
5,19-May-2017,1,10,stim.wav,1,17,4322,-1.6181504464258565,0,2.4587825073093765
5,19-May-2017,1,10,stim.wav,1,18,4895,-6.44331024244374,0,2.4587825073093765
5,19-May-2017,1,10,stim.wav,1,19,5534,1.5084049248619853,0,2.4587825073093765
5,19-May-2017,1,10,stim.wav,1,20,6245,1.5644832692384927,0,2.4587825073093765
5,19-May-2017,1,10,stim.wav,1,21,7037,1.2076904012087795,0,2.4587825073093765
5,19-May-2017,1,10,stim.wav,1,22,7920,-5.909366391953526,0,2.4587825073093765
5,19-May-2017,1,10,stim.wav,1,23,8904,-0.08830786508535483,0,2.4587825073093765
5,19-May-2017,1,10,stim.wav,1,24,10000,0.9888764084769507,0,2.4587825073093765
5,19-May-2017,1,11,stim.wav,0,0,100,4.217812290430618,1,3.1781404317133535
5,19-May-2017,1,11,stim.wav,0,1,191,-1.0564596083108515,1,3.1781404317133535
5,19-May-2017,1,11,stim.wav,0,2,293,0.031317422368344366,1,3.1781404317133535
5,19-May-2017,1,11,stim.wav,0,3,406,-0.8436778575309565,1,3.1781404317133535
5,19-May-2017,1,11,stim.wav,0,4,533,-0.09276931306336372,1,3.1781404317133535
5,19-May-2017,1,11,stim.wav,0,5,673,-1.70429745422835,1,3.1781404317133535
5,19-May-2017,1,11,stim.wav,0,6,830,3.380752618352847,1,3.1781404317133535
5,19-May-2017,1,11,stim.wav,0,7,1004,5.543381404055171,1,3.1781404317133535
5,19-May-2017,1,11,stim.wav,0,8,1199,8.139961771900591,1,3.1781404317133535
5,19-May-2017,1,11,stim.wav,0,9,1416,-3.7806443552759,1,3.1781404317133535
5,19-May-2017,1,11,stim.wav,0,10,1657,6.963441698770762,1,3.1781404317133535
5,19-May-2017,1,11,stim.wav,0,11,1926,-2.8809942346429724,1,3.1781404317133535
5,19-May-2017,1,11,stim.wav,0,12,2226,-6.216428871536641,1,3.1781404317133535
5,19-May-2017,1,11,stim.wav,0,13,2560,2.39354076443389,1,3.1781404317133535
5,19-May-2017,1,11,stim.wav,0,14,2932,-4.528178255482418,1,3.1781404317133535
5,19-May-2017,1,11,stim.wav,0,15,3346,0.6074742301345847,1,3.1781404317133535
5,19-May-2017,1,11,stim.wav,0,16,3808,-2.1046189644418347,1,3.1781404317133535
5,19-May-2017,1,11,stim.wav,0,17,4322,-3.949031835828473,1,3.1781404317133535
5,19-May-2017,1,11,stim.wav,0,18,4895,2.190129890351689,1,3.1781404317133535
5,19-May-2017,1,11,stim.wav,0,19,5534,-4.3681261487396625,1,3.1781404317133535
5,19-May-2017,1,11,stim.wav,0,20,6245,-1.2250908972398546,1,3.1781404317133535
5,19-May-2017,1,11,stim.wav,0,21,7037,-11.592257144819989,1,3.1781404317133535
5,19-May-2017,1,11,stim.wav,0,22,7920,-5.031329626857985,1,3.1781404317133535
5,19-May-2017,1,11,stim.wav,0,23,8904,-2.168184095061819,1,3.1781404317133535
5,19-May-2017,1,11,stim.wav,0,24,10000,-0.21036808042148114,1,3.1781404317133535
5,19-May-2017,1,11,stim.wav,1,0,100,-7.094133350126328,0,3.1781404317133535
5,19-May-2017,1,11,stim.wav,1,1,191,5.738366487973453,0,3.1781404317133535
5,19-May-2017,1,11,stim.wav,1,2,293,-2.18279825251454,0,3.1781404317133535
5,19-May-2017,1,11,stim.wav,1,3,406,-4.48169329821762,0,3.1781404317133535
5,19-May-2017,1,11,stim.wav,1,4,533,-4.221586826348672,0,3.1781404317133535
5,19-May-2017,1,11,stim.wav,1,5,673,-8.11200818816713,0,3.1781404317133535
5,19-May-2017,1,11,stim.wav,1,6,830,-3.065788901222304,0,3.1781404317133535
5,19-May-2017,1,11,stim.wav,1,7,1004,0.43150179151048323,0,3.1781404317133535
5,19-May-2017,1,11,stim.wav,1,8,1199,8.674046271301805,0,3.1781404317133535
5,19-May-2017,1,11,stim.wav,1,9,1416,-0.8715880928111228,0,3.1781404317133535
5,19-May-2017,1,11,stim.wav,1,10,1657,-3.5419116183659236,0,3.1781404317133535
5,19-May-2017,1,11,stim.wav,1,11,1926,-0.8983488664837023,0,3.1781404317133535
5,19-May-2017,1,11,stim.wav,1,12,2226,-4.23699838185702,0,3.1781404317133535
5,19-May-2017,1,11,stim.wav,1,13,2560,0.7012559647606535,0,3.1781404317133535
5,19-May-2017,1,11,stim.wav,1,14,2932,2.9574831916560607,0,3.1781404317133535
5,19-May-2017,1,11,stim.wav,1,15,3346,-1.4158887535141609,0,3.1781404317133535
5,19-May-2017,1,11,stim.wav,1,16,3808,1.723643797717286,0,3.1781404317133535
5,19-May-2017,1,11,stim.wav,1,17,4322,6.675300880799266,0,3.1781404317133535
5,19-May-2017,1,11,stim.wav,1,18,4895,6.9939567723298985,0,3.1781404317133535
5,19-May-2017,1,11,stim.wav,1,19,5534,-1.0479403666269573,0,3.1781404317133535
5,19-May-2017,1,11,stim.wav,1,20,6245,-1.7774055644180853,0,3.1781404317133535
5,19-May-2017,1,11,stim.wav,1,21,7037,-4.125202567194013,0,3.1781404317133535
5,19-May-2017,1,11,stim.wav,1,22,7920,2.5636992900671784,0,3.1781404317133535
5,19-May-2017,1,11,stim.wav,1,23,8904,4.045609378884633,0,3.1781404317133535
5,19-May-2017,1,11,stim.wav,1,24,10000,-9.764224568906924,0,3.1781404317133535
5,19-May-2017,1,12,stim.wav,0,0,100,-0.6960147723754917,1,5.81052960733613
5,19-May-2017,1,12,stim.wav,0,1,191,3.979828486767953,1,5.81052960733613
5,19-May-2017,1,12,stim.wav,0,2,293,9.724369606388187,1,5.81052960733613
5,19-May-2017,1,12,stim.wav,0,3,406,5.5638723298078965,1,5.81052960733613
5,19-May-2017,1,12,stim.wav,0,4,533,0.17448624488605285,1,5.81052960733613
5,19-May-2017,1,12,stim.wav,0,5,673,1.0086441547687843,1,5.81052960733613
5,19-May-2017,1,12,stim.wav,0,6,830,0.49705428276641933,1,5.81052960733613
5,19-May-2017,1,12,stim.wav,0,7,1004,1.576291635731939,1,5.81052960733613
5,19-May-2017,1,12,stim.wav,0,8,1199,6.657169944740833,1,5.81052960733613
5,19-May-2017,1,12,stim.wav,0,9,1416,-5.189102255611208,1,5.81052960733613
5,19-May-2017,1,12,stim.wav,0,10,1657,3.5871341966178676,1,5.81052960733613
5,19-May-2017,1,12,stim.wav,0,11,1926,-2.5824803692503777,1,5.81052960733613
5,19-May-2017,1,12,stim.wav,0,12,2226,1.6647909597576884,1,5.81052960733613
5,19-May-2017,1,12,stim.wav,0,13,2560,-2.6723710675737093,1,5.81052960733613
5,19-May-2017,1,12,stim.wav,0,14,2932,6.9727955617057225,1,5.81052960733613
5,19-May-2017,1,12,stim.wav,0,15,3346,1.9453308917422873,1,5.81052960733613
5,19-May-2017,1,12,stim.wav,0,16,3808,-2.329659070090501,1,5.81052960733613
5,19-May-2017,1,12,stim.wav,0,17,4322,7.906617590609368,1,5.81052960733613
5,19-May-2017,1,12,stim.wav,0,18,4895,3.113900041126228,1,5.81052960733613
5,19-May-2017,1,12,stim.wav,0,19,5534,3.111074202252256,1,5.81052960733613
5,19-May-2017,1,12,stim.wav,0,20,6245,4.517039953962112,1,5.81052960733613
5,19-May-2017,1,12,stim.wav,0,21,7037,-4.463803800562949,1,5.81052960733613
5,19-May-2017,1,12,stim.wav,0,22,7920,-8.449092459415704,1,5.81052960733613
5,19-May-2017,1,12,stim.wav,0,23,8904,-4.065683842958999,1,5.81052960733613
5,19-May-2017,1,12,stim.wav,0,24,10000,-3.078261244018552,1,5.81052960733613
5,19-May-2017,1,12,stim.wav,1,0,100,-3.1653713525178038,0,5.81052960733613
5,19-May-2017,1,12,stim.wav,1,1,191,3.2434791617430325,0,5.81052960733613
5,19-May-2017,1,12,stim.wav,1,2,293,3.064449651732927,0,5.81052960733613
5,19-May-2017,1,12,stim.wav,1,3,406,2.0451616680526943,0,5.81052960733613
5,19-May-2017,1,12,stim.wav,1,4,533,5.725322250769251,0,5.81052960733613
5,19-May-2017,1,12,stim.wav,1,5,673,-8.007439861228622,0,5.81052960733613
5,19-May-2017,1,12,stim.wav,1,6,830,6.35627275937164,0,5.81052960733613
5,19-May-2017,1,12,stim.wav,1,7,1004,-0.5780118365277587,0,5.81052960733613
5,19-May-2017,1,12,stim.wav,1,8,1199,-8.077083058303922,0,5.81052960733613
5,19-May-2017,1,12,stim.wav,1,9,1416,-1.959713925219885,0,5.81052960733613
5,19-May-2017,1,12,stim.wav,1,10,1657,2.364255107480095,0,5.81052960733613
5,19-May-2017,1,12,stim.wav,1,11,1926,2.4582582569999833,0,5.81052960733613
5,19-May-2017,1,12,stim.wav,1,12,2226,-3.426396534281915,0,5.81052960733613
5,19-May-2017,1,12,stim.wav,1,13,2560,1.8410181500471938,0,5.81052960733613
5,19-May-2017,1,12,stim.wav,1,14,2932,-6.714613510578981,0,5.81052960733613
5,19-May-2017,1,12,stim.wav,1,15,3346,4.123416780865024,0,5.81052960733613
5,19-May-2017,1,12,stim.wav,1,16,3808,1.2152427738410927,0,5.81052960733613
5,19-May-2017,1,12,stim.wav,1,17,4322,2.45767505800452,0,5.81052960733613
5,19-May-2017,1,12,stim.wav,1,18,4895,-2.2674237287433643,0,5.81052960733613
5,19-May-2017,1,12,stim.wav,1,19,5534,-0.6568505230629871,0,5.81052960733613
5,19-May-2017,1,12,stim.wav,1,20,6245,-1.4704379072974874,0,5.81052960733613
5,19-May-2017,1,12,stim.wav,1,21,7037,-1.4293091803208726,0,5.81052960733613
5,19-May-2017,1,12,stim.wav,1,22,7920,0.2978394230197193,0,5.81052960733613
5,19-May-2017,1,12,stim.wav,1,23,8904,5.39555088083974,0,5.81052960733613
5,19-May-2017,1,12,stim.wav,1,24,10000,4.635256780147494,0,5.81052960733613
5,19-May-2017,1,13,stim.wav,0,0,100,6.3013258358153665,1,0.9367052143753006
5,19-May-2017,1,13,stim.wav,0,1,191,-2.473318951013704,1,0.9367052143753006
5,19-May-2017,1,13,stim.wav,0,2,293,-6.476532106498012,1,0.9367052143753006
5,19-May-2017,1,13,stim.wav,0,3,406,0.7687811363081127,1,0.9367052143753006
5,19-May-2017,1,13,stim.wav,0,4,533,-4.5895915939747,1,0.9367052143753006
5,19-May-2017,1,13,stim.wav,0,5,673,-0.27658179148375395,1,0.9367052143753006
5,19-May-2017,1,13,stim.wav,0,6,830,-0.09672401196402508,1,0.9367052143753006
5,19-May-2017,1,13,stim.wav,0,7,1004,-4.6249109873290335,1,0.9367052143753006
5,19-May-2017,1,13,stim.wav,0,8,1199,-4.4982851988329005,1,0.9367052143753006
5,19-May-2017,1,13,stim.wav,0,9,1416,2.3780290304356857,1,0.9367052143753006
5,19-May-2017,1,13,stim.wav,0,10,1657,-4.372238840694829,1,0.9367052143753006
5,19-May-2017,1,13,stim.wav,0,11,1926,1.2386645612197196,1,0.9367052143753006
5,19-May-2017,1,13,stim.wav,0,12,2226,8.607957312262524,1,0.9367052143753006
5,19-May-2017,1,13,stim.wav,0,13,2560,-3.7509594716536303,1,0.9367052143753006
5,19-May-2017,1,13,stim.wav,0,14,2932,-5.505233306634002,1,0.9367052143753006
5,19-May-2017,1,13,stim.wav,0,15,3346,8.158532194757843,1,0.9367052143753006
5,19-May-2017,1,13,stim.wav,0,16,3808,0.06284118794185861,1,0.9367052143753006
5,19-May-2017,1,13,stim.wav,0,17,4322,-8.422842891172966,1,0.9367052143753006
5,19-May-2017,1,13,stim.wav,0,18,4895,-1.945836854089704,1,0.9367052143753006
5,19-May-2017,1,13,stim.wav,0,19,5534,4.47833754502267,1,0.9367052143753006
5,19-May-2017,1,13,stim.wav,0,20,6245,-2.141335755150037,1,0.9367052143753006
5,19-May-2017,1,13,stim.wav,0,21,7037,2.1471031481027345,1,0.9367052143753006
5,19-May-2017,1,13,stim.wav,0,22,7920,-5.095682937337035,1,0.9367052143753006
5,19-May-2017,1,13,stim.wav,0,23,8904,-9.996408019977816,1,0.9367052143753006
5,19-May-2017,1,13,stim.wav,0,24,10000,3.2459951056221934,1,0.9367052143753006
5,19-May-2017,1,13,stim.wav,1,0,100,-2.5588274182317394,0,0.9367052143753006
5,19-May-2017,1,13,stim.wav,1,1,191,-0.5431600511830452,0,0.9367052143753006
5,19-May-2017,1,13,stim.wav,1,2,293,2.6491053304457295,0,0.9367052143753006
5,19-May-2017,1,13,stim.wav,1,3,406,-2.4584579519413325,0,0.9367052143753006
5,19-May-2017,1,13,stim.wav,1,4,533,-2.466368426930971,0,0.9367052143753006
5,19-May-2017,1,13,stim.wav,1,5,673,5.502283530370202,0,0.9367052143753006
5,19-May-2017,1,13,stim.wav,1,6,830,5.605929391407052,0,0.9367052143753006
5,19-May-2017,1,13,stim.wav,1,7,1004,9.046370155512957,0,0.9367052143753006
5,19-May-2017,1,13,stim.wav,1,8,1199,0.31637928627678014,0,0.9367052143753006
5,19-May-2017,1,13,stim.wav,1,9,1416,-0.04137173178897834,0,0.9367052143753006
5,19-May-2017,1,13,stim.wav,1,10,1657,8.18642009441834,0,0.9367052143753006
5,19-May-2017,1,13,stim.wav,1,11,1926,-10.524937666562405,0,0.9367052143753006
5,19-May-2017,1,13,stim.wav,1,12,2226,6.824258065896002,0,0.9367052143753006
5,19-May-2017,1,13,stim.wav,1,13,2560,10.662579434681717,0,0.9367052143753006
5,19-May-2017,1,13,stim.wav,1,14,2932,-3.549362955563859,0,0.9367052143753006
5,19-May-2017,1,13,stim.wav,1,15,3346,0.09461736654391709,0,0.9367052143753006
5,19-May-2017,1,13,stim.wav,1,16,3808,5.02319935033597,0,0.9367052143753006
5,19-May-2017,1,13,stim.wav,1,17,4322,2.925594801317837,0,0.9367052143753006
5,19-May-2017,1,13,stim.wav,1,18,4895,0.15975747949648506,0,0.9367052143753006
5,19-May-2017,1,13,stim.wav,1,19,5534,-7.326620107063989,0,0.9367052143753006
5,19-May-2017,1,13,stim.wav,1,20,6245,1.7173602737800053,0,0.9367052143753006
5,19-May-2017,1,13,stim.wav,1,21,7037,1.3999577973433608,0,0.9367052143753006
5,19-May-2017,1,13,stim.wav,1,22,7920,3.8406653288862636,0,0.9367052143753006
5,19-May-2017,1,13,stim.wav,1,23,8904,-6.441736706834954,0,0.9367052143753006
5,19-May-2017,1,13,stim.wav,1,24,10000,-0.554297753023283,0,0.9367052143753006
5,19-May-2017,1,14,stim.wav,0,0,100,-4.803317889816617,0,1.48136579451364
5,19-May-2017,1,14,stim.wav,0,1,191,0.9701801438949342,0,1.48136579451364
5,19-May-2017,1,14,stim.wav,0,2,293,4.264248577009636,0,1.48136579451364
5,19-May-2017,1,14,stim.wav,0,3,406,5.843882575493796,0,1.48136579451364
5,19-May-2017,1,14,stim.wav,0,4,533,4.134570168760836,0,1.48136579451364
5,19-May-2017,1,14,stim.wav,0,5,673,1.9648316330960656,0,1.48136579451364
5,19-May-2017,1,14,stim.wav,0,6,830,-7.983756600237132,0,1.48136579451364
5,19-May-2017,1,14,stim.wav,0,7,1004,5.73545272514047,0,1.48136579451364
5,19-May-2017,1,14,stim.wav,0,8,1199,2.9991035024989543,0,1.48136579451364
5,19-May-2017,1,14,stim.wav,0,9,1416,1.7523840460373705,0,1.48136579451364
5,19-May-2017,1,14,stim.wav,0,10,1657,0.6344663170100467,0,1.48136579451364
5,19-May-2017,1,14,stim.wav,0,11,1926,5.436107977384863,0,1.48136579451364
5,19-May-2017,1,14,stim.wav,0,12,2226,-1.1243275199107203,0,1.48136579451364
5,19-May-2017,1,14,stim.wav,0,13,2560,3.553148095075009,0,1.48136579451364
5,19-May-2017,1,14,stim.wav,0,14,2932,-1.617954338519364,0,1.48136579451364
5,19-May-2017,1,14,stim.wav,0,15,3346,8.107643190275697,0,1.48136579451364
5,19-May-2017,1,14,stim.wav,0,16,3808,2.7035388054204876,0,1.48136579451364
5,19-May-2017,1,14,stim.wav,0,17,4322,-0.6342122237389629,0,1.48136579451364
5,19-May-2017,1,14,stim.wav,0,18,4895,-2.653353791930738,0,1.48136579451364
5,19-May-2017,1,14,stim.wav,0,19,5534,2.667315515972838,0,1.48136579451364
5,19-May-2017,1,14,stim.wav,0,20,6245,0.71975851199812,0,1.48136579451364
5,19-May-2017,1,14,stim.wav,0,21,7037,-5.583421480261994,0,1.48136579451364
5,19-May-2017,1,14,stim.wav,0,22,7920,2.1737600318052683,0,1.48136579451364
5,19-May-2017,1,14,stim.wav,0,23,8904,5.213823391055328,0,1.48136579451364
5,19-May-2017,1,14,stim.wav,0,24,10000,1.0359712221720019,0,1.48136579451364
5,19-May-2017,1,14,stim.wav,1,0,100,-4.229924286663577,1,1.48136579451364
5,19-May-2017,1,14,stim.wav,1,1,191,-7.210083989334276,1,1.48136579451364
5,19-May-2017,1,14,stim.wav,1,2,293,-1.08841730280491,1,1.48136579451364
5,19-May-2017,1,14,stim.wav,1,3,406,-3.949506866595777,1,1.48136579451364
5,19-May-2017,1,14,stim.wav,1,4,533,6.960752271250094,1,1.48136579451364
5,19-May-2017,1,14,stim.wav,1,5,673,-6.303285160494535,1,1.48136579451364
5,19-May-2017,1,14,stim.wav,1,6,830,3.485042177280719,1,1.48136579451364
5,19-May-2017,1,14,stim.wav,1,7,1004,4.546948746553862,1,1.48136579451364
5,19-May-2017,1,14,stim.wav,1,8,1199,-3.188146271590676,1,1.48136579451364
5,19-May-2017,1,14,stim.wav,1,9,1416,-1.6825319580421207,1,1.48136579451364
5,19-May-2017,1,14,stim.wav,1,10,1657,1.6185273638288344,1,1.48136579451364
5,19-May-2017,1,14,stim.wav,1,11,1926,4.760279439593807,1,1.48136579451364
5,19-May-2017,1,14,stim.wav,1,12,2226,5.975755552272739,1,1.48136579451364
5,19-May-2017,1,14,stim.wav,1,13,2560,3.988087193574766,1,1.48136579451364
5,19-May-2017,1,14,stim.wav,1,14,2932,1.8446361885129097,1,1.48136579451364
5,19-May-2017,1,14,stim.wav,1,15,3346,-3.9388031514155375,1,1.48136579451364
5,19-May-2017,1,14,stim.wav,1,16,3808,-9.262653161314947,1,1.48136579451364
5,19-May-2017,1,14,stim.wav,1,17,4322,7.7807299078172365,1,1.48136579451364
5,19-May-2017,1,14,stim.wav,1,18,4895,-3.5537775524534525,1,1.48136579451364
5,19-May-2017,1,14,stim.wav,1,19,5534,3.8100917597013764,1,1.48136579451364
5,19-May-2017,1,14,stim.wav,1,20,6245,1.4488514811921513,1,1.48136579451364
5,19-May-2017,1,14,stim.wav,1,21,7037,-3.577194705909686,1,1.48136579451364
5,19-May-2017,1,14,stim.wav,1,22,7920,3.0528194872302343,1,1.48136579451364
5,19-May-2017,1,14,stim.wav,1,23,8904,3.838279505530701,1,1.48136579451364
5,19-May-2017,1,14,stim.wav,1,24,10000,0.47021598640872564,1,1.48136579451364
5,19-May-2017,1,15,stim.wav,0,0,100,-1.6457320522981542,1,1.6307425559997784
5,19-May-2017,1,15,stim.wav,0,1,191,-9.185604849110197,1,1.6307425559997784
5,19-May-2017,1,15,stim.wav,0,2,293,-0.5198870298877976,1,1.6307425559997784
5,19-May-2017,1,15,stim.wav,0,3,406,3.3921451451661633,1,1.6307425559997784
5,19-May-2017,1,15,stim.wav,0,4,533,-1.7823484791907767,1,1.6307425559997784
5,19-May-2017,1,15,stim.wav,0,5,673,0.7474531950462736,1,1.6307425559997784
5,19-May-2017,1,15,stim.wav,0,6,830,-0.6183758871515204,1,1.6307425559997784
5,19-May-2017,1,15,stim.wav,0,7,1004,1.5540887923030333,1,1.6307425559997784
5,19-May-2017,1,15,stim.wav,0,8,1199,3.596722438998612,1,1.6307425559997784
5,19-May-2017,1,15,stim.wav,0,9,1416,6.295911302294312,1,1.6307425559997784
5,19-May-2017,1,15,stim.wav,0,10,1657,-8.1455224959239,1,1.6307425559997784
5,19-May-2017,1,15,stim.wav,0,11,1926,-2.405757170354038,1,1.6307425559997784
5,19-May-2017,1,15,stim.wav,0,12,2226,3.126393585222109,1,1.6307425559997784
5,19-May-2017,1,15,stim.wav,0,13,2560,-4.375786922773725,1,1.6307425559997784
5,19-May-2017,1,15,stim.wav,0,14,2932,0.4589360948350799,1,1.6307425559997784
5,19-May-2017,1,15,stim.wav,0,15,3346,-1.0229579848971306,1,1.6307425559997784
5,19-May-2017,1,15,stim.wav,0,16,3808,-2.7320449751276743,1,1.6307425559997784
5,19-May-2017,1,15,stim.wav,0,17,4322,3.0857567898582294,1,1.6307425559997784
5,19-May-2017,1,15,stim.wav,0,18,4895,3.4666832562715633,1,1.6307425559997784
5,19-May-2017,1,15,stim.wav,0,19,5534,1.1745282335029903,1,1.6307425559997784
5,19-May-2017,1,15,stim.wav,0,20,6245,-0.9119600443791274,1,1.6307425559997784
5,19-May-2017,1,15,stim.wav,0,21,7037,10.672570714321834,1,1.6307425559997784
5,19-May-2017,1,15,stim.wav,0,22,7920,7.154600801836915,1,1.6307425559997784
5,19-May-2017,1,15,stim.wav,0,23,8904,5.374191464904531,1,1.6307425559997784
5,19-May-2017,1,15,stim.wav,0,24,10000,3.5739128188652276,1,1.6307425559997784
5,19-May-2017,1,15,stim.wav,1,0,100,-1.7512556160637263,0,1.6307425559997784
5,19-May-2017,1,15,stim.wav,1,1,191,-0.17596695402205004,0,1.6307425559997784
5,19-May-2017,1,15,stim.wav,1,2,293,-2.384614213454153,0,1.6307425559997784
5,19-May-2017,1,15,stim.wav,1,3,406,2.0901911656007655,0,1.6307425559997784
5,19-May-2017,1,15,stim.wav,1,4,533,-3.5568373259885933,0,1.6307425559997784
5,19-May-2017,1,15,stim.wav,1,5,673,5.045896561915837,0,1.6307425559997784
5,19-May-2017,1,15,stim.wav,1,6,830,4.358037855359268,0,1.6307425559997784
5,19-May-2017,1,15,stim.wav,1,7,1004,1.017504956653972,0,1.6307425559997784
5,19-May-2017,1,15,stim.wav,1,8,1199,1.409056766818977,0,1.6307425559997784
5,19-May-2017,1,15,stim.wav,1,9,1416,-4.652310110405889,0,1.6307425559997784
5,19-May-2017,1,15,stim.wav,1,10,1657,-5.12082551576086,0,1.6307425559997784
5,19-May-2017,1,15,stim.wav,1,11,1926,2.0324583331536035,0,1.6307425559997784
5,19-May-2017,1,15,stim.wav,1,12,2226,1.7517889694841693,0,1.6307425559997784
5,19-May-2017,1,15,stim.wav,1,13,2560,1.3304008023617202,0,1.6307425559997784
5,19-May-2017,1,15,stim.wav,1,14,2932,0.34586568136114293,0,1.6307425559997784
5,19-May-2017,1,15,stim.wav,1,15,3346,-1.5377539697926854,0,1.6307425559997784
5,19-May-2017,1,15,stim.wav,1,16,3808,3.026272320598401,0,1.6307425559997784
5,19-May-2017,1,15,stim.wav,1,17,4322,0.00122345139433582,0,1.6307425559997784
5,19-May-2017,1,15,stim.wav,1,18,4895,1.4773958685177988,0,1.6307425559997784
5,19-May-2017,1,15,stim.wav,1,19,5534,-3.5898925634475507,0,1.6307425559997784
5,19-May-2017,1,15,stim.wav,1,20,6245,3.402869986085997,0,1.6307425559997784
5,19-May-2017,1,15,stim.wav,1,21,7037,12.025928026003118,0,1.6307425559997784
5,19-May-2017,1,15,stim.wav,1,22,7920,-2.702916659901427,0,1.6307425559997784
5,19-May-2017,1,15,stim.wav,1,23,8904,-1.1395360469540452,0,1.6307425559997784
5,19-May-2017,1,15,stim.wav,1,24,10000,-3.6760343025789135,0,1.6307425559997784
5,19-May-2017,1,16,stim.wav,0,0,100,-0.3392557795275655,1,1.5562888690155658
5,19-May-2017,1,16,stim.wav,0,1,191,0.12777781137009883,1,1.5562888690155658
5,19-May-2017,1,16,stim.wav,0,2,293,7.462746598875504,1,1.5562888690155658
5,19-May-2017,1,16,stim.wav,0,3,406,-9.10827796956409,1,1.5562888690155658
5,19-May-2017,1,16,stim.wav,0,4,533,-1.2035277070306472,1,1.5562888690155658
5,19-May-2017,1,16,stim.wav,0,5,673,5.398328752454271,1,1.5562888690155658
5,19-May-2017,1,16,stim.wav,0,6,830,6.35899137596164,1,1.5562888690155658
5,19-May-2017,1,16,stim.wav,0,7,1004,5.7033685702258,1,1.5562888690155658
5,19-May-2017,1,16,stim.wav,0,8,1199,1.4087369566475547,1,1.5562888690155658
5,19-May-2017,1,16,stim.wav,0,9,1416,0.19617675802293294,1,1.5562888690155658
5,19-May-2017,1,16,stim.wav,0,10,1657,-8.188112605961873,1,1.5562888690155658
5,19-May-2017,1,16,stim.wav,0,11,1926,5.717757555643221,1,1.5562888690155658
5,19-May-2017,1,16,stim.wav,0,12,2226,-7.624782536491983,1,1.5562888690155658
5,19-May-2017,1,16,stim.wav,0,13,2560,2.4530152580606392,1,1.5562888690155658
5,19-May-2017,1,16,stim.wav,0,14,2932,-2.0489390378773593,1,1.5562888690155658
5,19-May-2017,1,16,stim.wav,0,15,3346,-3.032688605602607,1,1.5562888690155658
5,19-May-2017,1,16,stim.wav,0,16,3808,2.057518165401106,1,1.5562888690155658
5,19-May-2017,1,16,stim.wav,0,17,4322,1.3420939771178557,1,1.5562888690155658
5,19-May-2017,1,16,stim.wav,0,18,4895,6.68373999637966,1,1.5562888690155658
5,19-May-2017,1,16,stim.wav,0,19,5534,3.1187022164010783,1,1.5562888690155658
5,19-May-2017,1,16,stim.wav,0,20,6245,-0.3581887159812661,1,1.5562888690155658
5,19-May-2017,1,16,stim.wav,0,21,7037,-0.04195187105017154,1,1.5562888690155658
5,19-May-2017,1,16,stim.wav,0,22,7920,0.3548528142348786,1,1.5562888690155658
5,19-May-2017,1,16,stim.wav,0,23,8904,6.988458478423149,1,1.5562888690155658
5,19-May-2017,1,16,stim.wav,0,24,10000,-4.4710202187799215,1,1.5562888690155658
5,19-May-2017,1,16,stim.wav,1,0,100,-6.3671147878510626,0,1.5562888690155658
5,19-May-2017,1,16,stim.wav,1,1,191,6.730474696337973,0,1.5562888690155658
5,19-May-2017,1,16,stim.wav,1,2,293,2.5903860227469924,0,1.5562888690155658
5,19-May-2017,1,16,stim.wav,1,3,406,12.45108078128599,0,1.5562888690155658
5,19-May-2017,1,16,stim.wav,1,4,533,9.36973712120411,0,1.5562888690155658
5,19-May-2017,1,16,stim.wav,1,5,673,-5.444837696467476,0,1.5562888690155658
5,19-May-2017,1,16,stim.wav,1,6,830,6.500562746798504,0,1.5562888690155658
5,19-May-2017,1,16,stim.wav,1,7,1004,-2.2339904584900343,0,1.5562888690155658
5,19-May-2017,1,16,stim.wav,1,8,1199,3.520040576154787,0,1.5562888690155658
5,19-May-2017,1,16,stim.wav,1,9,1416,-1.231093243762528,0,1.5562888690155658
5,19-May-2017,1,16,stim.wav,1,10,1657,5.412299352776682,0,1.5562888690155658
5,19-May-2017,1,16,stim.wav,1,11,1926,-1.8408926104588197,0,1.5562888690155658
5,19-May-2017,1,16,stim.wav,1,12,2226,6.4255438982275015,0,1.5562888690155658
5,19-May-2017,1,16,stim.wav,1,13,2560,-2.870711453914047,0,1.5562888690155658
5,19-May-2017,1,16,stim.wav,1,14,2932,-3.0846622102704253,0,1.5562888690155658
5,19-May-2017,1,16,stim.wav,1,15,3346,-3.5558403813584416,0,1.5562888690155658
5,19-May-2017,1,16,stim.wav,1,16,3808,2.4045533302433655,0,1.5562888690155658
5,19-May-2017,1,16,stim.wav,1,17,4322,6.896466969363253,0,1.5562888690155658
5,19-May-2017,1,16,stim.wav,1,18,4895,-4.483369826924315,0,1.5562888690155658
5,19-May-2017,1,16,stim.wav,1,19,5534,0.5527242561080143,0,1.5562888690155658
5,19-May-2017,1,16,stim.wav,1,20,6245,1.314267076875171,0,1.5562888690155658
5,19-May-2017,1,16,stim.wav,1,21,7037,-4.099022346694466,0,1.5562888690155658
5,19-May-2017,1,16,stim.wav,1,22,7920,3.7193978934755996,0,1.5562888690155658
5,19-May-2017,1,16,stim.wav,1,23,8904,-3.970491053824254,0,1.5562888690155658
5,19-May-2017,1,16,stim.wav,1,24,10000,1.576807651643171,0,1.5562888690155658
5,19-May-2017,1,17,stim.wav,0,0,100,7.636537767130525,1,1.4227525677755206
5,19-May-2017,1,17,stim.wav,0,1,191,6.269818595500292,1,1.4227525677755206
5,19-May-2017,1,17,stim.wav,0,2,293,8.351176938643324,1,1.4227525677755206
5,19-May-2017,1,17,stim.wav,0,3,406,-1.2715226415195326,1,1.4227525677755206
5,19-May-2017,1,17,stim.wav,0,4,533,-5.975958305278468,1,1.4227525677755206
5,19-May-2017,1,17,stim.wav,0,5,673,-0.6030597994765119,1,1.4227525677755206
5,19-May-2017,1,17,stim.wav,0,6,830,1.3510762643414984,1,1.4227525677755206
5,19-May-2017,1,17,stim.wav,0,7,1004,0.17503055011552024,1,1.4227525677755206
5,19-May-2017,1,17,stim.wav,0,8,1199,-4.68328341701584,1,1.4227525677755206
5,19-May-2017,1,17,stim.wav,0,9,1416,-3.3672613798051696,1,1.4227525677755206
5,19-May-2017,1,17,stim.wav,0,10,1657,0.3162699537808858,1,1.4227525677755206
5,19-May-2017,1,17,stim.wav,0,11,1926,-1.5866255034802728,1,1.4227525677755206
5,19-May-2017,1,17,stim.wav,0,12,2226,-2.174981307282751,1,1.4227525677755206
5,19-May-2017,1,17,stim.wav,0,13,2560,-0.5048353168628298,1,1.4227525677755206
5,19-May-2017,1,17,stim.wav,0,14,2932,2.4536774076526804,1,1.4227525677755206
5,19-May-2017,1,17,stim.wav,0,15,3346,-0.7225799200479497,1,1.4227525677755206
5,19-May-2017,1,17,stim.wav,0,16,3808,3.4237875155576702,1,1.4227525677755206
5,19-May-2017,1,17,stim.wav,0,17,4322,-11.721598468038302,1,1.4227525677755206
5,19-May-2017,1,17,stim.wav,0,18,4895,9.922898356968268,1,1.4227525677755206
5,19-May-2017,1,17,stim.wav,0,19,5534,-2.031754934609951,1,1.4227525677755206
5,19-May-2017,1,17,stim.wav,0,20,6245,-11.090465576499692,1,1.4227525677755206
5,19-May-2017,1,17,stim.wav,0,21,7037,-2.8622618101142843,1,1.4227525677755206
5,19-May-2017,1,17,stim.wav,0,22,7920,7.773314217317968,1,1.4227525677755206
5,19-May-2017,1,17,stim.wav,0,23,8904,-3.035172214198844,1,1.4227525677755206
5,19-May-2017,1,17,stim.wav,0,24,10000,0.6497258741171583,1,1.4227525677755206
5,19-May-2017,1,17,stim.wav,1,0,100,2.7445422829764325,0,1.4227525677755206
5,19-May-2017,1,17,stim.wav,1,1,191,11.76521700350886,0,1.4227525677755206
5,19-May-2017,1,17,stim.wav,1,2,293,7.283024176743695,0,1.4227525677755206
5,19-May-2017,1,17,stim.wav,1,3,406,0.664280160729836,0,1.4227525677755206
5,19-May-2017,1,17,stim.wav,1,4,533,-1.1909363824999586,0,1.4227525677755206
5,19-May-2017,1,17,stim.wav,1,5,673,-3.1325307579605015,0,1.4227525677755206
5,19-May-2017,1,17,stim.wav,1,6,830,-1.1468848911150695,0,1.4227525677755206
5,19-May-2017,1,17,stim.wav,1,7,1004,-7.059028825862562,0,1.4227525677755206
5,19-May-2017,1,17,stim.wav,1,8,1199,-2.8110779018391794,0,1.4227525677755206
5,19-May-2017,1,17,stim.wav,1,9,1416,2.4145458504105863,0,1.4227525677755206
5,19-May-2017,1,17,stim.wav,1,10,1657,-2.661109370848309,0,1.4227525677755206
5,19-May-2017,1,17,stim.wav,1,11,1926,-4.297610958320908,0,1.4227525677755206
5,19-May-2017,1,17,stim.wav,1,12,2226,4.360635624548718,0,1.4227525677755206
5,19-May-2017,1,17,stim.wav,1,13,2560,0.6681699363674125,0,1.4227525677755206
5,19-May-2017,1,17,stim.wav,1,14,2932,1.6828208543245824,0,1.4227525677755206
5,19-May-2017,1,17,stim.wav,1,15,3346,-3.769223805468002,0,1.4227525677755206
5,19-May-2017,1,17,stim.wav,1,16,3808,2.368890529950928,0,1.4227525677755206
5,19-May-2017,1,17,stim.wav,1,17,4322,-0.3216615367357456,0,1.4227525677755206
5,19-May-2017,1,17,stim.wav,1,18,4895,2.926419063682437,0,1.4227525677755206
5,19-May-2017,1,17,stim.wav,1,19,5534,5.499470013824332,0,1.4227525677755206
5,19-May-2017,1,17,stim.wav,1,20,6245,-5.132104628913435,0,1.4227525677755206
5,19-May-2017,1,17,stim.wav,1,21,7037,6.377160710768903,0,1.4227525677755206
5,19-May-2017,1,17,stim.wav,1,22,7920,-6.253744876344199,0,1.4227525677755206
5,19-May-2017,1,17,stim.wav,1,23,8904,2.745537545835597,0,1.4227525677755206
5,19-May-2017,1,17,stim.wav,1,24,10000,2.2282363482220258,0,1.4227525677755206
5,19-May-2017,1,18,stim.wav,0,0,100,10.306643991372283,0,6.348915037438102
5,19-May-2017,1,18,stim.wav,0,1,191,5.576959893616875,0,6.348915037438102
5,19-May-2017,1,18,stim.wav,0,2,293,0.8326915118289804,0,6.348915037438102
5,19-May-2017,1,18,stim.wav,0,3,406,0.8703080095230155,0,6.348915037438102
5,19-May-2017,1,18,stim.wav,0,4,533,1.4876573172535785,0,6.348915037438102
5,19-May-2017,1,18,stim.wav,0,5,673,-1.792611617817116,0,6.348915037438102
5,19-May-2017,1,18,stim.wav,0,6,830,-0.9864325858191082,0,6.348915037438102
5,19-May-2017,1,18,stim.wav,0,7,1004,-8.102184766268367,0,6.348915037438102
5,19-May-2017,1,18,stim.wav,0,8,1199,2.7566448798631256,0,6.348915037438102
5,19-May-2017,1,18,stim.wav,0,9,1416,7.9749012721977515,0,6.348915037438102
5,19-May-2017,1,18,stim.wav,0,10,1657,9.552595881485392,0,6.348915037438102
5,19-May-2017,1,18,stim.wav,0,11,1926,2.5656325283915966,0,6.348915037438102
5,19-May-2017,1,18,stim.wav,0,12,2226,11.958667872447643,0,6.348915037438102
5,19-May-2017,1,18,stim.wav,0,13,2560,-4.3873421590983614,0,6.348915037438102
5,19-May-2017,1,18,stim.wav,0,14,2932,1.659732503477669,0,6.348915037438102
5,19-May-2017,1,18,stim.wav,0,15,3346,11.612859846147641,0,6.348915037438102
5,19-May-2017,1,18,stim.wav,0,16,3808,2.055821250913656,0,6.348915037438102
5,19-May-2017,1,18,stim.wav,0,17,4322,10.649386766602758,0,6.348915037438102
5,19-May-2017,1,18,stim.wav,0,18,4895,-9.429884799144968,0,6.348915037438102
5,19-May-2017,1,18,stim.wav,0,19,5534,8.873408785728591,0,6.348915037438102
5,19-May-2017,1,18,stim.wav,0,20,6245,-4.238782137570947,0,6.348915037438102
5,19-May-2017,1,18,stim.wav,0,21,7037,1.6736478475172873,0,6.348915037438102
5,19-May-2017,1,18,stim.wav,0,22,7920,-2.390406843977714,0,6.348915037438102
5,19-May-2017,1,18,stim.wav,0,23,8904,-2.4696814741449247,0,6.348915037438102
5,19-May-2017,1,18,stim.wav,0,24,10000,4.390378705678493,0,6.348915037438102
5,19-May-2017,1,18,stim.wav,1,0,100,-1.2311802749997205,1,6.348915037438102
5,19-May-2017,1,18,stim.wav,1,1,191,3.4516374199118656,1,6.348915037438102
5,19-May-2017,1,18,stim.wav,1,2,293,-0.16263698417189568,1,6.348915037438102
5,19-May-2017,1,18,stim.wav,1,3,406,5.399469967446853,1,6.348915037438102
5,19-May-2017,1,18,stim.wav,1,4,533,-0.7712266716441216,1,6.348915037438102
5,19-May-2017,1,18,stim.wav,1,5,673,-4.25063403907003,1,6.348915037438102
5,19-May-2017,1,18,stim.wav,1,6,830,0.9264370433566536,1,6.348915037438102
5,19-May-2017,1,18,stim.wav,1,7,1004,4.51223689167376,1,6.348915037438102
5,19-May-2017,1,18,stim.wav,1,8,1199,2.908893170217803,1,6.348915037438102
5,19-May-2017,1,18,stim.wav,1,9,1416,-3.799915035363859,1,6.348915037438102
5,19-May-2017,1,18,stim.wav,1,10,1657,10.240562425211914,1,6.348915037438102
5,19-May-2017,1,18,stim.wav,1,11,1926,8.598844474338321,1,6.348915037438102
5,19-May-2017,1,18,stim.wav,1,12,2226,-1.0999125579957485,1,6.348915037438102
5,19-May-2017,1,18,stim.wav,1,13,2560,-7.409033988527814,1,6.348915037438102
5,19-May-2017,1,18,stim.wav,1,14,2932,1.3793490965484119,1,6.348915037438102
5,19-May-2017,1,18,stim.wav,1,15,3346,5.5642413831319715,1,6.348915037438102
5,19-May-2017,1,18,stim.wav,1,16,3808,5.083426977650283,1,6.348915037438102
5,19-May-2017,1,18,stim.wav,1,17,4322,-1.728868353027618,1,6.348915037438102
5,19-May-2017,1,18,stim.wav,1,18,4895,2.260905171374326,1,6.348915037438102
5,19-May-2017,1,18,stim.wav,1,19,5534,-1.2477416605814344,1,6.348915037438102
5,19-May-2017,1,18,stim.wav,1,20,6245,2.2753595123278583,1,6.348915037438102
5,19-May-2017,1,18,stim.wav,1,21,7037,5.026404550398454,1,6.348915037438102
5,19-May-2017,1,18,stim.wav,1,22,7920,-5.506584727044965,1,6.348915037438102
5,19-May-2017,1,18,stim.wav,1,23,8904,1.4455708845508228,1,6.348915037438102
5,19-May-2017,1,18,stim.wav,1,24,10000,3.87067298669538,1,6.348915037438102
5,19-May-2017,1,19,stim.wav,0,0,100,1.196995155917468,1,6.653234155263264
5,19-May-2017,1,19,stim.wav,0,1,191,5.048317719210277,1,6.653234155263264
5,19-May-2017,1,19,stim.wav,0,2,293,-3.202436487197768,1,6.653234155263264
5,19-May-2017,1,19,stim.wav,0,3,406,-6.895495880561045,1,6.653234155263264
5,19-May-2017,1,19,stim.wav,0,4,533,8.51029690642017,1,6.653234155263264
5,19-May-2017,1,19,stim.wav,0,5,673,-7.9010105523210425,1,6.653234155263264
5,19-May-2017,1,19,stim.wav,0,6,830,-1.4588892967082203,1,6.653234155263264
5,19-May-2017,1,19,stim.wav,0,7,1004,-6.736988778927592,1,6.653234155263264
5,19-May-2017,1,19,stim.wav,0,8,1199,3.8294956571920142,1,6.653234155263264
5,19-May-2017,1,19,stim.wav,0,9,1416,0.3022830632762721,1,6.653234155263264
5,19-May-2017,1,19,stim.wav,0,10,1657,2.172933434897434,1,6.653234155263264
5,19-May-2017,1,19,stim.wav,0,11,1926,0.9976780431715115,1,6.653234155263264
5,19-May-2017,1,19,stim.wav,0,12,2226,-5.9734186261702416,1,6.653234155263264
5,19-May-2017,1,19,stim.wav,0,13,2560,-7.443237303716975,1,6.653234155263264
5,19-May-2017,1,19,stim.wav,0,14,2932,-4.024586419099927,1,6.653234155263264
5,19-May-2017,1,19,stim.wav,0,15,3346,5.885831494020717,1,6.653234155263264
5,19-May-2017,1,19,stim.wav,0,16,3808,-4.052604745291141,1,6.653234155263264
5,19-May-2017,1,19,stim.wav,0,17,4322,-1.9634441269051819,1,6.653234155263264
5,19-May-2017,1,19,stim.wav,0,18,4895,-2.3934499945978507,1,6.653234155263264
5,19-May-2017,1,19,stim.wav,0,19,5534,-9.65289883642261,1,6.653234155263264
5,19-May-2017,1,19,stim.wav,0,20,6245,-6.564617208808471,1,6.653234155263264
5,19-May-2017,1,19,stim.wav,0,21,7037,0.8516914226309564,1,6.653234155263264
5,19-May-2017,1,19,stim.wav,0,22,7920,-0.6402229040671701,1,6.653234155263264
5,19-May-2017,1,19,stim.wav,0,23,8904,4.372624099912425,1,6.653234155263264
5,19-May-2017,1,19,stim.wav,0,24,10000,-5.046305123164006,1,6.653234155263264
5,19-May-2017,1,19,stim.wav,1,0,100,-0.8784571194383646,0,6.653234155263264
5,19-May-2017,1,19,stim.wav,1,1,191,-2.4892254560152827,0,6.653234155263264
5,19-May-2017,1,19,stim.wav,1,2,293,-2.4827792529329167,0,6.653234155263264
5,19-May-2017,1,19,stim.wav,1,3,406,0.21015191887186568,0,6.653234155263264
5,19-May-2017,1,19,stim.wav,1,4,533,7.524184708137932,0,6.653234155263264
5,19-May-2017,1,19,stim.wav,1,5,673,4.696172556497063,0,6.653234155263264
5,19-May-2017,1,19,stim.wav,1,6,830,2.0524771787963902,0,6.653234155263264
5,19-May-2017,1,19,stim.wav,1,7,1004,1.549559758034649,0,6.653234155263264
5,19-May-2017,1,19,stim.wav,1,8,1199,0.7418288971477728,0,6.653234155263264
5,19-May-2017,1,19,stim.wav,1,9,1416,-2.9089172360909004,0,6.653234155263264
5,19-May-2017,1,19,stim.wav,1,10,1657,0.45069357170014157,0,6.653234155263264
5,19-May-2017,1,19,stim.wav,1,11,1926,-3.9850383286423927,0,6.653234155263264
5,19-May-2017,1,19,stim.wav,1,12,2226,-8.104067302471105,0,6.653234155263264
5,19-May-2017,1,19,stim.wav,1,13,2560,6.713362806857663,0,6.653234155263264
5,19-May-2017,1,19,stim.wav,1,14,2932,0.9687333333422644,0,6.653234155263264
5,19-May-2017,1,19,stim.wav,1,15,3346,1.9969819877026578,0,6.653234155263264
5,19-May-2017,1,19,stim.wav,1,16,3808,-2.4871510818323475,0,6.653234155263264
5,19-May-2017,1,19,stim.wav,1,17,4322,-1.4406309644872706,0,6.653234155263264
5,19-May-2017,1,19,stim.wav,1,18,4895,-2.4577242994261583,0,6.653234155263264
5,19-May-2017,1,19,stim.wav,1,19,5534,-1.0340829357628025,0,6.653234155263264
5,19-May-2017,1,19,stim.wav,1,20,6245,-1.842290254995543,0,6.653234155263264
5,19-May-2017,1,19,stim.wav,1,21,7037,3.4139822122681034,0,6.653234155263264
5,19-May-2017,1,19,stim.wav,1,22,7920,0.9682705291613023,0,6.653234155263264
5,19-May-2017,1,19,stim.wav,1,23,8904,-0.41277118271934526,0,6.653234155263264
5,19-May-2017,1,19,stim.wav,1,24,10000,-4.672441726219732,0,6.653234155263264
5,19-May-2017,1,20,stim.wav,0,0,100,-1.257557710253284,0,5.60637682785726
5,19-May-2017,1,20,stim.wav,0,1,191,-3.4775777832198984,0,5.60637682785726
5,19-May-2017,1,20,stim.wav,0,2,293,-0.9730871525695857,0,5.60637682785726
5,19-May-2017,1,20,stim.wav,0,3,406,6.86402485273819,0,5.60637682785726
5,19-May-2017,1,20,stim.wav,0,4,533,-2.6012240411388428,0,5.60637682785726
5,19-May-2017,1,20,stim.wav,0,5,673,-7.010401734739422,0,5.60637682785726
5,19-May-2017,1,20,stim.wav,0,6,830,3.099081187572609,0,5.60637682785726
5,19-May-2017,1,20,stim.wav,0,7,1004,-11.569431987433978,0,5.60637682785726
5,19-May-2017,1,20,stim.wav,0,8,1199,-0.9260403748635231,0,5.60637682785726
5,19-May-2017,1,20,stim.wav,0,9,1416,-3.5438329190414155,0,5.60637682785726
5,19-May-2017,1,20,stim.wav,0,10,1657,-3.0450416379524894,0,5.60637682785726
5,19-May-2017,1,20,stim.wav,0,11,1926,10.992821835057228,0,5.60637682785726
5,19-May-2017,1,20,stim.wav,0,12,2226,-1.7302400691977007,0,5.60637682785726
5,19-May-2017,1,20,stim.wav,0,13,2560,3.0455566505464238,0,5.60637682785726
5,19-May-2017,1,20,stim.wav,0,14,2932,0.05716939192419695,0,5.60637682785726
5,19-May-2017,1,20,stim.wav,0,15,3346,-5.162210565533708,0,5.60637682785726
5,19-May-2017,1,20,stim.wav,0,16,3808,-5.890255809845826,0,5.60637682785726
5,19-May-2017,1,20,stim.wav,0,17,4322,-1.2050046820458695,0,5.60637682785726
5,19-May-2017,1,20,stim.wav,0,18,4895,1.7800277264416966,0,5.60637682785726
5,19-May-2017,1,20,stim.wav,0,19,5534,-3.343939979869164,0,5.60637682785726
5,19-May-2017,1,20,stim.wav,0,20,6245,5.533676089623908,0,5.60637682785726
5,19-May-2017,1,20,stim.wav,0,21,7037,1.2722125331832799,0,5.60637682785726
5,19-May-2017,1,20,stim.wav,0,22,7920,-0.2615611393758702,0,5.60637682785726
5,19-May-2017,1,20,stim.wav,0,23,8904,-0.47284859423551795,0,5.60637682785726
5,19-May-2017,1,20,stim.wav,0,24,10000,-3.3637683245859,0,5.60637682785726
5,19-May-2017,1,20,stim.wav,1,0,100,0.10660486377661627,1,5.60637682785726
5,19-May-2017,1,20,stim.wav,1,1,191,-1.330601214332081,1,5.60637682785726
5,19-May-2017,1,20,stim.wav,1,2,293,-5.382583336411465,1,5.60637682785726
5,19-May-2017,1,20,stim.wav,1,3,406,2.822059449084104,1,5.60637682785726
5,19-May-2017,1,20,stim.wav,1,4,533,4.98544381338178,1,5.60637682785726
5,19-May-2017,1,20,stim.wav,1,5,673,-5.500453014029025,1,5.60637682785726
5,19-May-2017,1,20,stim.wav,1,6,830,-0.5424159954365266,1,5.60637682785726
5,19-May-2017,1,20,stim.wav,1,7,1004,3.6697010284512928,1,5.60637682785726
5,19-May-2017,1,20,stim.wav,1,8,1199,-0.9626729800054858,1,5.60637682785726
5,19-May-2017,1,20,stim.wav,1,9,1416,-0.03345325382194356,1,5.60637682785726
5,19-May-2017,1,20,stim.wav,1,10,1657,9.29356819172854,1,5.60637682785726
5,19-May-2017,1,20,stim.wav,1,11,1926,4.678433890698242,1,5.60637682785726
5,19-May-2017,1,20,stim.wav,1,12,2226,4.478310248554295,1,5.60637682785726
5,19-May-2017,1,20,stim.wav,1,13,2560,2.5387121267087416,1,5.60637682785726
5,19-May-2017,1,20,stim.wav,1,14,2932,0.30427242361025386,1,5.60637682785726
5,19-May-2017,1,20,stim.wav,1,15,3346,3.7488706460083647,1,5.60637682785726
5,19-May-2017,1,20,stim.wav,1,16,3808,0.3344907208432834,1,5.60637682785726
5,19-May-2017,1,20,stim.wav,1,17,4322,4.358856939314393,1,5.60637682785726
5,19-May-2017,1,20,stim.wav,1,18,4895,-5.421831288997013,1,5.60637682785726
5,19-May-2017,1,20,stim.wav,1,19,5534,5.394861297369492,1,5.60637682785726
5,19-May-2017,1,20,stim.wav,1,20,6245,3.009483395625174,1,5.60637682785726
5,19-May-2017,1,20,stim.wav,1,21,7037,-4.076184461962473,1,5.60637682785726
5,19-May-2017,1,20,stim.wav,1,22,7920,-6.156716387315027,1,5.60637682785726
5,19-May-2017,1,20,stim.wav,1,23,8904,7.563481084018844,1,5.60637682785726
5,19-May-2017,1,20,stim.wav,1,24,10000,-5.18354256131604,1,5.60637682785726
5,19-May-2017,1,21,stim.wav,0,0,100,3.6665356035395607,1,0.9030526610372096
5,19-May-2017,1,21,stim.wav,0,1,191,-5.311332717775907,1,0.9030526610372096
5,19-May-2017,1,21,stim.wav,0,2,293,-1.474762672958569,1,0.9030526610372096
5,19-May-2017,1,21,stim.wav,0,3,406,-6.409693197728306,1,0.9030526610372096
5,19-May-2017,1,21,stim.wav,0,4,533,8.308137843801477,1,0.9030526610372096
5,19-May-2017,1,21,stim.wav,0,5,673,-3.835725312961826,1,0.9030526610372096
5,19-May-2017,1,21,stim.wav,0,6,830,0.15466750094964976,1,0.9030526610372096
5,19-May-2017,1,21,stim.wav,0,7,1004,0.24626578583176847,1,0.9030526610372096
5,19-May-2017,1,21,stim.wav,0,8,1199,-0.8897515454759674,1,0.9030526610372096
5,19-May-2017,1,21,stim.wav,0,9,1416,6.227788271766521,1,0.9030526610372096
5,19-May-2017,1,21,stim.wav,0,10,1657,10.036076885963332,1,0.9030526610372096
5,19-May-2017,1,21,stim.wav,0,11,1926,6.4850728220760825,1,0.9030526610372096
5,19-May-2017,1,21,stim.wav,0,12,2226,9.197935071930946,1,0.9030526610372096
5,19-May-2017,1,21,stim.wav,0,13,2560,-5.546986955653712,1,0.9030526610372096
5,19-May-2017,1,21,stim.wav,0,14,2932,5.7968654029126085,1,0.9030526610372096
5,19-May-2017,1,21,stim.wav,0,15,3346,0.6216869628950672,1,0.9030526610372096
5,19-May-2017,1,21,stim.wav,0,16,3808,0.35847391610418283,1,0.9030526610372096
5,19-May-2017,1,21,stim.wav,0,17,4322,-2.0062223409833724,1,0.9030526610372096
5,19-May-2017,1,21,stim.wav,0,18,4895,-1.7932106338029614,1,0.9030526610372096
5,19-May-2017,1,21,stim.wav,0,19,5534,3.1815581465413,1,0.9030526610372096
5,19-May-2017,1,21,stim.wav,0,20,6245,1.4483878571654865,1,0.9030526610372096
5,19-May-2017,1,21,stim.wav,0,21,7037,0.20479916950178179,1,0.9030526610372096
5,19-May-2017,1,21,stim.wav,0,22,7920,5.092414022118184,1,0.9030526610372096
5,19-May-2017,1,21,stim.wav,0,23,8904,-2.593348548542231,1,0.9030526610372096
5,19-May-2017,1,21,stim.wav,0,24,10000,0.6183961938694333,1,0.9030526610372096
5,19-May-2017,1,21,stim.wav,1,0,100,-3.3576300523457014,0,0.9030526610372096
5,19-May-2017,1,21,stim.wav,1,1,191,3.695634919038,0,0.9030526610372096
5,19-May-2017,1,21,stim.wav,1,2,293,8.215392097566951,0,0.9030526610372096
5,19-May-2017,1,21,stim.wav,1,3,406,0.5764878273962911,0,0.9030526610372096
5,19-May-2017,1,21,stim.wav,1,4,533,-3.129237451246638,0,0.9030526610372096
5,19-May-2017,1,21,stim.wav,1,5,673,0.9569178595612758,0,0.9030526610372096
5,19-May-2017,1,21,stim.wav,1,6,830,0.1811412885925201,0,0.9030526610372096
5,19-May-2017,1,21,stim.wav,1,7,1004,-3.0055502709886843,0,0.9030526610372096
5,19-May-2017,1,21,stim.wav,1,8,1199,1.8018799666573573,0,0.9030526610372096
5,19-May-2017,1,21,stim.wav,1,9,1416,-3.478510941117265,0,0.9030526610372096
5,19-May-2017,1,21,stim.wav,1,10,1657,0.27723465378679857,0,0.9030526610372096
5,19-May-2017,1,21,stim.wav,1,11,1926,-2.1061049686425055,0,0.9030526610372096
5,19-May-2017,1,21,stim.wav,1,12,2226,1.9510042486354315,0,0.9030526610372096
5,19-May-2017,1,21,stim.wav,1,13,2560,-11.925805422700382,0,0.9030526610372096
5,19-May-2017,1,21,stim.wav,1,14,2932,-0.5258318277459061,0,0.9030526610372096
5,19-May-2017,1,21,stim.wav,1,15,3346,5.042480492709243,0,0.9030526610372096
5,19-May-2017,1,21,stim.wav,1,16,3808,7.392549802579438,0,0.9030526610372096
5,19-May-2017,1,21,stim.wav,1,17,4322,5.295458141795626,0,0.9030526610372096
5,19-May-2017,1,21,stim.wav,1,18,4895,1.4993798949599513,0,0.9030526610372096
5,19-May-2017,1,21,stim.wav,1,19,5534,-1.939023616588714,0,0.9030526610372096
5,19-May-2017,1,21,stim.wav,1,20,6245,-5.580763571978863,0,0.9030526610372096
5,19-May-2017,1,21,stim.wav,1,21,7037,-2.567573248711671,0,0.9030526610372096
5,19-May-2017,1,21,stim.wav,1,22,7920,-1.3150514852524096,0,0.9030526610372096
5,19-May-2017,1,21,stim.wav,1,23,8904,-5.190028573228861,0,0.9030526610372096
5,19-May-2017,1,21,stim.wav,1,24,10000,-3.670061152835198,0,0.9030526610372096
5,19-May-2017,1,22,stim.wav,0,0,100,4.785068942457077,0,1.1084490437426744
5,19-May-2017,1,22,stim.wav,0,1,191,1.1030374363329478,0,1.1084490437426744
5,19-May-2017,1,22,stim.wav,0,2,293,2.676124479663155,0,1.1084490437426744
5,19-May-2017,1,22,stim.wav,0,3,406,-0.21491840659232797,0,1.1084490437426744
5,19-May-2017,1,22,stim.wav,0,4,533,-4.927746391545361,0,1.1084490437426744
5,19-May-2017,1,22,stim.wav,0,5,673,6.786098861452832,0,1.1084490437426744
5,19-May-2017,1,22,stim.wav,0,6,830,0.43415941346766457,0,1.1084490437426744
5,19-May-2017,1,22,stim.wav,0,7,1004,2.06459891196085,0,1.1084490437426744
5,19-May-2017,1,22,stim.wav,0,8,1199,-9.637863067389693,0,1.1084490437426744
5,19-May-2017,1,22,stim.wav,0,9,1416,0.03966513419618962,0,1.1084490437426744
5,19-May-2017,1,22,stim.wav,0,10,1657,0.4752365328616271,0,1.1084490437426744
5,19-May-2017,1,22,stim.wav,0,11,1926,2.355986225164009,0,1.1084490437426744
5,19-May-2017,1,22,stim.wav,0,12,2226,9.942964787835876,0,1.1084490437426744
5,19-May-2017,1,22,stim.wav,0,13,2560,-6.875107230351695,0,1.1084490437426744
5,19-May-2017,1,22,stim.wav,0,14,2932,1.424557445944807,0,1.1084490437426744
5,19-May-2017,1,22,stim.wav,0,15,3346,-6.794876619412548,0,1.1084490437426744
5,19-May-2017,1,22,stim.wav,0,16,3808,-4.578886324962116,0,1.1084490437426744
5,19-May-2017,1,22,stim.wav,0,17,4322,0.14075333383991312,0,1.1084490437426744
5,19-May-2017,1,22,stim.wav,0,18,4895,-5.848645424386472,0,1.1084490437426744
5,19-May-2017,1,22,stim.wav,0,19,5534,4.8663537187433565,0,1.1084490437426744
5,19-May-2017,1,22,stim.wav,0,20,6245,-8.153336201127733,0,1.1084490437426744
5,19-May-2017,1,22,stim.wav,0,21,7037,1.5318593259140334,0,1.1084490437426744
5,19-May-2017,1,22,stim.wav,0,22,7920,-6.439254021557391,0,1.1084490437426744
5,19-May-2017,1,22,stim.wav,0,23,8904,-1.3508216473762968,0,1.1084490437426744
5,19-May-2017,1,22,stim.wav,0,24,10000,7.68797971098668,0,1.1084490437426744
5,19-May-2017,1,22,stim.wav,1,0,100,-0.21080545946580906,1,1.1084490437426744
5,19-May-2017,1,22,stim.wav,1,1,191,-0.7137848882720382,1,1.1084490437426744
5,19-May-2017,1,22,stim.wav,1,2,293,-3.3025911723974892,1,1.1084490437426744
5,19-May-2017,1,22,stim.wav,1,3,406,-1.5793079942250599,1,1.1084490437426744
5,19-May-2017,1,22,stim.wav,1,4,533,-12.37747151519801,1,1.1084490437426744
5,19-May-2017,1,22,stim.wav,1,5,673,-0.8531592678992129,1,1.1084490437426744
5,19-May-2017,1,22,stim.wav,1,6,830,-0.6138617276166747,1,1.1084490437426744
5,19-May-2017,1,22,stim.wav,1,7,1004,3.0737511986835413,1,1.1084490437426744
5,19-May-2017,1,22,stim.wav,1,8,1199,6.611935833523218,1,1.1084490437426744
5,19-May-2017,1,22,stim.wav,1,9,1416,0.940682748704665,1,1.1084490437426744
5,19-May-2017,1,22,stim.wav,1,10,1657,-4.4218258423271966,1,1.1084490437426744
5,19-May-2017,1,22,stim.wav,1,11,1926,1.8403956452605348,1,1.1084490437426744
5,19-May-2017,1,22,stim.wav,1,12,2226,0.2262665434616395,1,1.1084490437426744
5,19-May-2017,1,22,stim.wav,1,13,2560,8.444930325958868,1,1.1084490437426744
5,19-May-2017,1,22,stim.wav,1,14,2932,3.4209351704088267,1,1.1084490437426744
5,19-May-2017,1,22,stim.wav,1,15,3346,-4.773958462218218,1,1.1084490437426744
5,19-May-2017,1,22,stim.wav,1,16,3808,3.173128732157333,1,1.1084490437426744
5,19-May-2017,1,22,stim.wav,1,17,4322,-8.422827188965208,1,1.1084490437426744
5,19-May-2017,1,22,stim.wav,1,18,4895,-2.4863500247926194,1,1.1084490437426744
5,19-May-2017,1,22,stim.wav,1,19,5534,3.7922830448199867,1,1.1084490437426744
5,19-May-2017,1,22,stim.wav,1,20,6245,2.6006830022796064,1,1.1084490437426744
5,19-May-2017,1,22,stim.wav,1,21,7037,-8.486567802789368,1,1.1084490437426744
5,19-May-2017,1,22,stim.wav,1,22,7920,4.704927162692033,1,1.1084490437426744
5,19-May-2017,1,22,stim.wav,1,23,8904,7.4067359015290215,1,1.1084490437426744
5,19-May-2017,1,22,stim.wav,1,24,10000,9.681649411242285,1,1.1084490437426744
5,19-May-2017,1,23,stim.wav,0,0,100,6.688343889950371,1,7.756391299498659
5,19-May-2017,1,23,stim.wav,0,1,191,2.758964473639545,1,7.756391299498659
5,19-May-2017,1,23,stim.wav,0,2,293,-2.9391871628679143,1,7.756391299498659
5,19-May-2017,1,23,stim.wav,0,3,406,-2.5238378145911016,1,7.756391299498659
5,19-May-2017,1,23,stim.wav,0,4,533,1.9925547518799909,1,7.756391299498659
5,19-May-2017,1,23,stim.wav,0,5,673,3.6957786557790016,1,7.756391299498659
5,19-May-2017,1,23,stim.wav,0,6,830,5.624330575407709,1,7.756391299498659
5,19-May-2017,1,23,stim.wav,0,7,1004,-9.745292901071814,1,7.756391299498659
5,19-May-2017,1,23,stim.wav,0,8,1199,-0.7210187481949824,1,7.756391299498659
5,19-May-2017,1,23,stim.wav,0,9,1416,6.828154531803831,1,7.756391299498659
5,19-May-2017,1,23,stim.wav,0,10,1657,-2.2816044834623668,1,7.756391299498659
5,19-May-2017,1,23,stim.wav,0,11,1926,3.5815714468365902,1,7.756391299498659
5,19-May-2017,1,23,stim.wav,0,12,2226,5.348322752548311,1,7.756391299498659
5,19-May-2017,1,23,stim.wav,0,13,2560,2.0369177551884303,1,7.756391299498659
5,19-May-2017,1,23,stim.wav,0,14,2932,5.330307075749648,1,7.756391299498659
5,19-May-2017,1,23,stim.wav,0,15,3346,2.343322532871399,1,7.756391299498659
5,19-May-2017,1,23,stim.wav,0,16,3808,-4.304836533601329,1,7.756391299498659
5,19-May-2017,1,23,stim.wav,0,17,4322,-0.5957017087138823,1,7.756391299498659
5,19-May-2017,1,23,stim.wav,0,18,4895,4.116755276460033,1,7.756391299498659
5,19-May-2017,1,23,stim.wav,0,19,5534,-1.3236034710579492,1,7.756391299498659
5,19-May-2017,1,23,stim.wav,0,20,6245,-1.5565436206250753,1,7.756391299498659
5,19-May-2017,1,23,stim.wav,0,21,7037,1.9612649927928263,1,7.756391299498659
5,19-May-2017,1,23,stim.wav,0,22,7920,0.6978160469292591,1,7.756391299498659
5,19-May-2017,1,23,stim.wav,0,23,8904,-4.015053379603756,1,7.756391299498659
5,19-May-2017,1,23,stim.wav,0,24,10000,0.3838876765848236,1,7.756391299498659
5,19-May-2017,1,23,stim.wav,1,0,100,2.743798829375173,0,7.756391299498659
5,19-May-2017,1,23,stim.wav,1,1,191,7.811336314071674,0,7.756391299498659
5,19-May-2017,1,23,stim.wav,1,2,293,5.715139898157167,0,7.756391299498659
5,19-May-2017,1,23,stim.wav,1,3,406,-3.022133424711661,0,7.756391299498659
5,19-May-2017,1,23,stim.wav,1,4,533,1.3886377465963553,0,7.756391299498659
5,19-May-2017,1,23,stim.wav,1,5,673,2.8172196581597557,0,7.756391299498659
5,19-May-2017,1,23,stim.wav,1,6,830,4.033907039802514,0,7.756391299498659
5,19-May-2017,1,23,stim.wav,1,7,1004,7.066221757812915,0,7.756391299498659
5,19-May-2017,1,23,stim.wav,1,8,1199,7.205044670041733,0,7.756391299498659
5,19-May-2017,1,23,stim.wav,1,9,1416,-6.6566857890719175,0,7.756391299498659
5,19-May-2017,1,23,stim.wav,1,10,1657,5.142213558570776,0,7.756391299498659
5,19-May-2017,1,23,stim.wav,1,11,1926,-3.683598547574917,0,7.756391299498659
5,19-May-2017,1,23,stim.wav,1,12,2226,8.84614428354623,0,7.756391299498659
5,19-May-2017,1,23,stim.wav,1,13,2560,0.6581526282309819,0,7.756391299498659
5,19-May-2017,1,23,stim.wav,1,14,2932,3.0571133903974146,0,7.756391299498659
5,19-May-2017,1,23,stim.wav,1,15,3346,-1.6300264458605527,0,7.756391299498659
5,19-May-2017,1,23,stim.wav,1,16,3808,-1.8088709162743288,0,7.756391299498659
5,19-May-2017,1,23,stim.wav,1,17,4322,3.3027580741218046,0,7.756391299498659
5,19-May-2017,1,23,stim.wav,1,18,4895,1.8561520247874486,0,7.756391299498659
5,19-May-2017,1,23,stim.wav,1,19,5534,-4.262623148261695,0,7.756391299498659
5,19-May-2017,1,23,stim.wav,1,20,6245,-5.327440508735409,0,7.756391299498659
5,19-May-2017,1,23,stim.wav,1,21,7037,-0.6868131379592528,0,7.756391299498659
5,19-May-2017,1,23,stim.wav,1,22,7920,6.001778067340963,0,7.756391299498659
5,19-May-2017,1,23,stim.wav,1,23,8904,7.212950679075345,0,7.756391299498659
5,19-May-2017,1,23,stim.wav,1,24,10000,-2.1398510631813137,0,7.756391299498659
5,19-May-2017,1,24,stim.wav,0,0,100,-9.399903658457298,1,0.6228998158714563
5,19-May-2017,1,24,stim.wav,0,1,191,5.237600344321967,1,0.6228998158714563
5,19-May-2017,1,24,stim.wav,0,2,293,-5.795747929129753,1,0.6228998158714563
5,19-May-2017,1,24,stim.wav,0,3,406,-4.857623363482427,1,0.6228998158714563
5,19-May-2017,1,24,stim.wav,0,4,533,-9.068187559040682,1,0.6228998158714563
5,19-May-2017,1,24,stim.wav,0,5,673,0.6284493204142776,1,0.6228998158714563
5,19-May-2017,1,24,stim.wav,0,6,830,2.4957507952795486,1,0.6228998158714563
5,19-May-2017,1,24,stim.wav,0,7,1004,-0.7123712537775635,1,0.6228998158714563
5,19-May-2017,1,24,stim.wav,0,8,1199,2.0671583006058873,1,0.6228998158714563
5,19-May-2017,1,24,stim.wav,0,9,1416,0.4681800118813306,1,0.6228998158714563
5,19-May-2017,1,24,stim.wav,0,10,1657,-1.7642705859077965,1,0.6228998158714563
5,19-May-2017,1,24,stim.wav,0,11,1926,6.313549422056085,1,0.6228998158714563
5,19-May-2017,1,24,stim.wav,0,12,2226,4.709239176977718,1,0.6228998158714563
5,19-May-2017,1,24,stim.wav,0,13,2560,0.16621248493730198,1,0.6228998158714563
5,19-May-2017,1,24,stim.wav,0,14,2932,1.9535853282673286,1,0.6228998158714563
5,19-May-2017,1,24,stim.wav,0,15,3346,4.214674251279651,1,0.6228998158714563
5,19-May-2017,1,24,stim.wav,0,16,3808,0.31664855798350466,1,0.6228998158714563
5,19-May-2017,1,24,stim.wav,0,17,4322,-2.455121045356063,1,0.6228998158714563
5,19-May-2017,1,24,stim.wav,0,18,4895,-0.6794939925416297,1,0.6228998158714563
5,19-May-2017,1,24,stim.wav,0,19,5534,-5.180087807258159,1,0.6228998158714563
5,19-May-2017,1,24,stim.wav,0,20,6245,7.370084633843472,1,0.6228998158714563
5,19-May-2017,1,24,stim.wav,0,21,7037,-1.0943615952992471,1,0.6228998158714563
5,19-May-2017,1,24,stim.wav,0,22,7920,0.46412395019196373,1,0.6228998158714563
5,19-May-2017,1,24,stim.wav,0,23,8904,6.459715340527865,1,0.6228998158714563
5,19-May-2017,1,24,stim.wav,0,24,10000,4.1880548068660435,1,0.6228998158714563
5,19-May-2017,1,24,stim.wav,1,0,100,5.2217873797813565,0,0.6228998158714563
5,19-May-2017,1,24,stim.wav,1,1,191,-1.8509655290324687,0,0.6228998158714563
5,19-May-2017,1,24,stim.wav,1,2,293,-1.2702947341744233,0,0.6228998158714563
5,19-May-2017,1,24,stim.wav,1,3,406,-3.107175087823844,0,0.6228998158714563
5,19-May-2017,1,24,stim.wav,1,4,533,-3.72389063360079,0,0.6228998158714563
5,19-May-2017,1,24,stim.wav,1,5,673,3.5260713708291935,0,0.6228998158714563
5,19-May-2017,1,24,stim.wav,1,6,830,-6.598658433473722,0,0.6228998158714563
5,19-May-2017,1,24,stim.wav,1,7,1004,-3.7159984475572436,0,0.6228998158714563
5,19-May-2017,1,24,stim.wav,1,8,1199,-1.362130235864175,0,0.6228998158714563
5,19-May-2017,1,24,stim.wav,1,9,1416,-2.8655593561386006,0,0.6228998158714563
5,19-May-2017,1,24,stim.wav,1,10,1657,-4.055149104830173,0,0.6228998158714563
5,19-May-2017,1,24,stim.wav,1,11,1926,-0.7263248194785665,0,0.6228998158714563
5,19-May-2017,1,24,stim.wav,1,12,2226,-3.8208644159731717,0,0.6228998158714563
5,19-May-2017,1,24,stim.wav,1,13,2560,-6.847019468033522,0,0.6228998158714563
5,19-May-2017,1,24,stim.wav,1,14,2932,-0.17341188815607453,0,0.6228998158714563
5,19-May-2017,1,24,stim.wav,1,15,3346,0.5900132243552532,0,0.6228998158714563
5,19-May-2017,1,24,stim.wav,1,16,3808,-4.090259583332594,0,0.6228998158714563
5,19-May-2017,1,24,stim.wav,1,17,4322,5.13571094270212,0,0.6228998158714563
5,19-May-2017,1,24,stim.wav,1,18,4895,-0.07738652439650195,0,0.6228998158714563
5,19-May-2017,1,24,stim.wav,1,19,5534,0.889537910961419,0,0.6228998158714563
5,19-May-2017,1,24,stim.wav,1,20,6245,6.219546570976774,0,0.6228998158714563
5,19-May-2017,1,24,stim.wav,1,21,7037,0.8786956809978421,0,0.6228998158714563
5,19-May-2017,1,24,stim.wav,1,22,7920,-7.231244933077536,0,0.6228998158714563
5,19-May-2017,1,24,stim.wav,1,23,8904,-0.803781829126608,0,0.6228998158714563
5,19-May-2017,1,24,stim.wav,1,24,10000,3.362444649663996,0,0.6228998158714563
5,19-May-2017,1,25,stim.wav,0,0,100,1.9326091805290582,1,1.1767312428026677
5,19-May-2017,1,25,stim.wav,0,1,191,0.24573751945750882,1,1.1767312428026677
5,19-May-2017,1,25,stim.wav,0,2,293,-4.760893306844895,1,1.1767312428026677
5,19-May-2017,1,25,stim.wav,0,3,406,4.785498139741478,1,1.1767312428026677
5,19-May-2017,1,25,stim.wav,0,4,533,-5.411696458037035,1,1.1767312428026677
5,19-May-2017,1,25,stim.wav,0,5,673,0.3824939811404987,1,1.1767312428026677
5,19-May-2017,1,25,stim.wav,0,6,830,-1.2198535199701939,1,1.1767312428026677
5,19-May-2017,1,25,stim.wav,0,7,1004,-3.2398683355718125,1,1.1767312428026677
5,19-May-2017,1,25,stim.wav,0,8,1199,2.464505070914739,1,1.1767312428026677
5,19-May-2017,1,25,stim.wav,0,9,1416,-4.924239281413376,1,1.1767312428026677
5,19-May-2017,1,25,stim.wav,0,10,1657,3.0624485083111654,1,1.1767312428026677
5,19-May-2017,1,25,stim.wav,0,11,1926,6.5594301790489435,1,1.1767312428026677
5,19-May-2017,1,25,stim.wav,0,12,2226,-1.2392277429392355,1,1.1767312428026677
5,19-May-2017,1,25,stim.wav,0,13,2560,-3.5139636027751147,1,1.1767312428026677
5,19-May-2017,1,25,stim.wav,0,14,2932,-2.439161344842184,1,1.1767312428026677
5,19-May-2017,1,25,stim.wav,0,15,3346,8.654240387754754,1,1.1767312428026677
5,19-May-2017,1,25,stim.wav,0,16,3808,7.356369300684226,1,1.1767312428026677
5,19-May-2017,1,25,stim.wav,0,17,4322,2.2725316874000296,1,1.1767312428026677
5,19-May-2017,1,25,stim.wav,0,18,4895,3.2013019356153274,1,1.1767312428026677
5,19-May-2017,1,25,stim.wav,0,19,5534,-2.244160128055188,1,1.1767312428026677
5,19-May-2017,1,25,stim.wav,0,20,6245,4.555594838195075,1,1.1767312428026677
5,19-May-2017,1,25,stim.wav,0,21,7037,4.001505150573727,1,1.1767312428026677
5,19-May-2017,1,25,stim.wav,0,22,7920,7.53976934543558,1,1.1767312428026677
5,19-May-2017,1,25,stim.wav,0,23,8904,0.02222007731914996,1,1.1767312428026677
5,19-May-2017,1,25,stim.wav,0,24,10000,1.1158200452909124,1,1.1767312428026677
5,19-May-2017,1,25,stim.wav,1,0,100,4.11557474055469,0,1.1767312428026677
5,19-May-2017,1,25,stim.wav,1,1,191,8.652728146579257,0,1.1767312428026677
5,19-May-2017,1,25,stim.wav,1,2,293,2.942561013491467,0,1.1767312428026677
5,19-May-2017,1,25,stim.wav,1,3,406,-1.8478431944530573,0,1.1767312428026677
5,19-May-2017,1,25,stim.wav,1,4,533,7.140429247378234,0,1.1767312428026677
5,19-May-2017,1,25,stim.wav,1,5,673,-0.6851122849922621,0,1.1767312428026677
5,19-May-2017,1,25,stim.wav,1,6,830,-3.675417438380675,0,1.1767312428026677
5,19-May-2017,1,25,stim.wav,1,7,1004,-0.6422587920149971,0,1.1767312428026677
5,19-May-2017,1,25,stim.wav,1,8,1199,-5.102321685006706,0,1.1767312428026677
5,19-May-2017,1,25,stim.wav,1,9,1416,-3.007072276966868,0,1.1767312428026677
5,19-May-2017,1,25,stim.wav,1,10,1657,-2.5738206682352196,0,1.1767312428026677
5,19-May-2017,1,25,stim.wav,1,11,1926,-3.207579826331468,0,1.1767312428026677
5,19-May-2017,1,25,stim.wav,1,12,2226,2.699223637702149,0,1.1767312428026677
5,19-May-2017,1,25,stim.wav,1,13,2560,9.296070653127577,0,1.1767312428026677
5,19-May-2017,1,25,stim.wav,1,14,2932,5.19871687766433,0,1.1767312428026677
5,19-May-2017,1,25,stim.wav,1,15,3346,-2.167219071471538,0,1.1767312428026677
5,19-May-2017,1,25,stim.wav,1,16,3808,-8.741614685031568,0,1.1767312428026677
5,19-May-2017,1,25,stim.wav,1,17,4322,-0.6969002666672555,0,1.1767312428026677
5,19-May-2017,1,25,stim.wav,1,18,4895,2.6356422000546957,0,1.1767312428026677
5,19-May-2017,1,25,stim.wav,1,19,5534,-0.7762031504415043,0,1.1767312428026677
5,19-May-2017,1,25,stim.wav,1,20,6245,5.715708346173836,0,1.1767312428026677
5,19-May-2017,1,25,stim.wav,1,21,7037,-1.0256767420546162,0,1.1767312428026677
5,19-May-2017,1,25,stim.wav,1,22,7920,8.468629676368288,0,1.1767312428026677
5,19-May-2017,1,25,stim.wav,1,23,8904,4.399675870393466,0,1.1767312428026677
5,19-May-2017,1,25,stim.wav,1,24,10000,-4.354333596431927,0,1.1767312428026677
5,19-May-2017,1,26,stim.wav,0,0,100,-0.5777925686000438,0,8.407951807723546
5,19-May-2017,1,26,stim.wav,0,1,191,0.9037915637072215,0,8.407951807723546
5,19-May-2017,1,26,stim.wav,0,2,293,0.3781263614763981,0,8.407951807723546
5,19-May-2017,1,26,stim.wav,0,3,406,-1.0474487808940998,0,8.407951807723546
5,19-May-2017,1,26,stim.wav,0,4,533,-1.1375805178189586,0,8.407951807723546
5,19-May-2017,1,26,stim.wav,0,5,673,9.187941087740407,0,8.407951807723546
5,19-May-2017,1,26,stim.wav,0,6,830,-1.7525191049399904,0,8.407951807723546
5,19-May-2017,1,26,stim.wav,0,7,1004,-5.5135590038434765,0,8.407951807723546
5,19-May-2017,1,26,stim.wav,0,8,1199,6.8439179635723315,0,8.407951807723546
5,19-May-2017,1,26,stim.wav,0,9,1416,-0.9382138114972107,0,8.407951807723546
5,19-May-2017,1,26,stim.wav,0,10,1657,-1.6517182795147978,0,8.407951807723546
5,19-May-2017,1,26,stim.wav,0,11,1926,1.3878566544438675,0,8.407951807723546
5,19-May-2017,1,26,stim.wav,0,12,2226,1.2022955994171367,0,8.407951807723546
5,19-May-2017,1,26,stim.wav,0,13,2560,3.4737875533264386,0,8.407951807723546
5,19-May-2017,1,26,stim.wav,0,14,2932,6.215866336193128,0,8.407951807723546
5,19-May-2017,1,26,stim.wav,0,15,3346,2.5951935179282763,0,8.407951807723546
5,19-May-2017,1,26,stim.wav,0,16,3808,2.4779060931440635,0,8.407951807723546
5,19-May-2017,1,26,stim.wav,0,17,4322,3.9721088952627035,0,8.407951807723546
5,19-May-2017,1,26,stim.wav,0,18,4895,4.696730479331333,0,8.407951807723546
5,19-May-2017,1,26,stim.wav,0,19,5534,10.366338276428198,0,8.407951807723546
5,19-May-2017,1,26,stim.wav,0,20,6245,4.918691160092382,0,8.407951807723546
5,19-May-2017,1,26,stim.wav,0,21,7037,-1.531121127745279,0,8.407951807723546
5,19-May-2017,1,26,stim.wav,0,22,7920,4.71987061167329,0,8.407951807723546
5,19-May-2017,1,26,stim.wav,0,23,8904,-0.5878085304750889,0,8.407951807723546
5,19-May-2017,1,26,stim.wav,0,24,10000,5.141863383667925,0,8.407951807723546
5,19-May-2017,1,26,stim.wav,1,0,100,3.571220612498392,1,8.407951807723546
5,19-May-2017,1,26,stim.wav,1,1,191,0.852346025967317,1,8.407951807723546
5,19-May-2017,1,26,stim.wav,1,2,293,8.381429326548764,1,8.407951807723546
5,19-May-2017,1,26,stim.wav,1,3,406,-4.582172414070238,1,8.407951807723546
5,19-May-2017,1,26,stim.wav,1,4,533,0.31061623245801395,1,8.407951807723546
5,19-May-2017,1,26,stim.wav,1,5,673,1.3945772568600612,1,8.407951807723546
5,19-May-2017,1,26,stim.wav,1,6,830,7.236021433549425,1,8.407951807723546
5,19-May-2017,1,26,stim.wav,1,7,1004,0.7747733171742535,1,8.407951807723546
5,19-May-2017,1,26,stim.wav,1,8,1199,-1.8929205276851606,1,8.407951807723546
5,19-May-2017,1,26,stim.wav,1,9,1416,-1.2903740169656766,1,8.407951807723546
5,19-May-2017,1,26,stim.wav,1,10,1657,8.922755512675154,1,8.407951807723546
5,19-May-2017,1,26,stim.wav,1,11,1926,0.22654749744001892,1,8.407951807723546
5,19-May-2017,1,26,stim.wav,1,12,2226,1.7169271338652958,1,8.407951807723546
5,19-May-2017,1,26,stim.wav,1,13,2560,-3.422357217182372,1,8.407951807723546
5,19-May-2017,1,26,stim.wav,1,14,2932,-12.260052165404003,1,8.407951807723546
5,19-May-2017,1,26,stim.wav,1,15,3346,-1.4198273398868038,1,8.407951807723546
5,19-May-2017,1,26,stim.wav,1,16,3808,-0.9528312533680995,1,8.407951807723546
5,19-May-2017,1,26,stim.wav,1,17,4322,6.717709524728386,1,8.407951807723546
5,19-May-2017,1,26,stim.wav,1,18,4895,-3.817794043101169,1,8.407951807723546
5,19-May-2017,1,26,stim.wav,1,19,5534,0.8095992883131717,1,8.407951807723546
5,19-May-2017,1,26,stim.wav,1,20,6245,0.7882876642494653,1,8.407951807723546
5,19-May-2017,1,26,stim.wav,1,21,7037,11.209578440404492,1,8.407951807723546
5,19-May-2017,1,26,stim.wav,1,22,7920,0.5491593233256813,1,8.407951807723546
5,19-May-2017,1,26,stim.wav,1,23,8904,-6.030550997725413,1,8.407951807723546
5,19-May-2017,1,26,stim.wav,1,24,10000,-6.874594259064983,1,8.407951807723546
5,19-May-2017,1,27,stim.wav,0,0,100,-4.87060485519348,0,0.9584362826971855
5,19-May-2017,1,27,stim.wav,0,1,191,5.956821857854473,0,0.9584362826971855
5,19-May-2017,1,27,stim.wav,0,2,293,10.159298150705942,0,0.9584362826971855
5,19-May-2017,1,27,stim.wav,0,3,406,-1.1819047180441378,0,0.9584362826971855
5,19-May-2017,1,27,stim.wav,0,4,533,5.874496702756767,0,0.9584362826971855
5,19-May-2017,1,27,stim.wav,0,5,673,-8.161499142063901,0,0.9584362826971855
5,19-May-2017,1,27,stim.wav,0,6,830,-3.213807800735874,0,0.9584362826971855
