subj,date,session,trial,stim,stim_order,filter,filter_freq,filter_gain,response,rt
6,19-May-2017,1,1,stim.wav,0,0,100,6.639722027954713,0,4.746407330561167
6,19-May-2017,1,1,stim.wav,0,1,191,-2.4501339443571624,0,4.746407330561167
6,19-May-2017,1,1,stim.wav,0,2,293,-3.7749513193865276,0,4.746407330561167
6,19-May-2017,1,1,stim.wav,0,3,406,4.694142594075405,0,4.746407330561167
6,19-May-2017,1,1,stim.wav,0,4,533,-1.2884913176589259,0,4.746407330561167
6,19-May-2017,1,1,stim.wav,0,5,673,3.6403360978784827,0,4.746407330561167
6,19-May-2017,1,1,stim.wav,0,6,830,5.128305932635251,0,4.746407330561167
6,19-May-2017,1,1,stim.wav,0,7,1004,-1.4520918416511108,0,4.746407330561167
6,19-May-2017,1,1,stim.wav,0,8,1199,3.6945076818910385,0,4.746407330561167
6,19-May-2017,1,1,stim.wav,0,9,1416,-12.224424230473414,0,4.746407330561167
6,19-May-2017,1,1,stim.wav,0,10,1657,-4.586010120429989,0,4.746407330561167
6,19-May-2017,1,1,stim.wav,0,11,1926,-2.833257514467447,0,4.746407330561167
6,19-May-2017,1,1,stim.wav,0,12,2226,4.595322897967503,0,4.746407330561167
6,19-May-2017,1,1,stim.wav,0,13,2560,-1.2868473287504032,0,4.746407330561167
6,19-May-2017,1,1,stim.wav,0,14,2932,0.5667971497090476,0,4.746407330561167
6,19-May-2017,1,1,stim.wav,0,15,3346,-3.961516502958902,0,4.746407330561167
6,19-May-2017,1,1,stim.wav,0,16,3808,-3.093315515326855,0,4.746407330561167
6,19-May-2017,1,1,stim.wav,0,17,4322,-2.4187364439662287,0,4.746407330561167
6,19-May-2017,1,1,stim.wav,0,18,4895,-6.9746728688506625,0,4.746407330561167
6,19-May-2017,1,1,stim.wav,0,19,5534,-1.3157285779971448,0,4.746407330561167
6,19-May-2017,1,1,stim.wav,0,20,6245,-1.423529361221318,0,4.746407330561167
6,19-May-2017,1,1,stim.wav,0,21,7037,-0.03574987291135688,0,4.746407330561167
6,19-May-2017,1,1,stim.wav,0,22,7920,0.6465022194853316,0,4.746407330561167
6,19-May-2017,1,1,stim.wav,0,23,8904,-1.589079519256134,0,4.746407330561167
6,19-May-2017,1,1,stim.wav,0,24,10000,0.07023808396382057,0,4.746407330561167
6,19-May-2017,1,1,stim.wav,1,0,100,-7.6617130678007905,1,4.746407330561167
6,19-May-2017,1,1,stim.wav,1,1,191,-3.7648589510913766,1,4.746407330561167
6,19-May-2017,1,1,stim.wav,1,2,293,-0.57229679581435,1,4.746407330561167
6,19-May-2017,1,1,stim.wav,1,3,406,8.329459516212763,1,4.746407330561167
6,19-May-2017,1,1,stim.wav,1,4,533,3.6237948663187973,1,4.746407330561167
6,19-May-2017,1,1,stim.wav,1,5,673,0.7545088817443166,1,4.746407330561167
6,19-May-2017,1,1,stim.wav,1,6,830,4.3062088138314625,1,4.746407330561167
6,19-May-2017,1,1,stim.wav,1,7,1004,-2.667861479946655,1,4.746407330561167
6,19-May-2017,1,1,stim.wav,1,8,1199,-4.047280605152404,1,4.746407330561167
6,19-May-2017,1,1,stim.wav,1,9,1416,-2.4631705588685717,1,4.746407330561167
6,19-May-2017,1,1,stim.wav,1,10,1657,-1.3863687470119834,1,4.746407330561167
6,19-May-2017,1,1,stim.wav,1,11,1926,-5.359601486320029,1,4.746407330561167
6,19-May-2017,1,1,stim.wav,1,12,2226,6.282018991429801,1,4.746407330561167
6,19-May-2017,1,1,stim.wav,1,13,2560,5.247216618898244,1,4.746407330561167
6,19-May-2017,1,1,stim.wav,1,14,2932,1.8203008613420077,1,4.746407330561167
6,19-May-2017,1,1,stim.wav,1,15,3346,-0.2934327445859424,1,4.746407330561167
6,19-May-2017,1,1,stim.wav,1,16,3808,-8.176655370561608,1,4.746407330561167
6,19-May-2017,1,1,stim.wav,1,17,4322,-7.970176309243998,1,4.746407330561167
6,19-May-2017,1,1,stim.wav,1,18,4895,1.7085564204277925,1,4.746407330561167
6,19-May-2017,1,1,stim.wav,1,19,5534,-1.0859539561987905,1,4.746407330561167
6,19-May-2017,1,1,stim.wav,1,20,6245,-3.6700393153956585,1,4.746407330561167
6,19-May-2017,1,1,stim.wav,1,21,7037,-0.44865293308982473,1,4.746407330561167
6,19-May-2017,1,1,stim.wav,1,22,7920,2.7244229310062753,1,4.746407330561167
6,19-May-2017,1,1,stim.wav,1,23,8904,-5.422939311105832,1,4.746407330561167
6,19-May-2017,1,1,stim.wav,1,24,10000,-1.3772657210962063,1,4.746407330561167
6,19-May-2017,1,2,stim.wav,0,0,100,-0.8191793210009162,1,2.359811228128993
6,19-May-2017,1,2,stim.wav,0,1,191,4.411528754389898,1,2.359811228128993
6,19-May-2017,1,2,stim.wav,0,2,293,3.1137468515755646,1,2.359811228128993
6,19-May-2017,1,2,stim.wav,0,3,406,-3.739295006925018,1,2.359811228128993
6,19-May-2017,1,2,stim.wav,0,4,533,5.056052897597402,1,2.359811228128993
6,19-May-2017,1,2,stim.wav,0,5,673,1.5045364037456577,1,2.359811228128993
6,19-May-2017,1,2,stim.wav,0,6,830,2.701953387058273,1,2.359811228128993
6,19-May-2017,1,2,stim.wav,0,7,1004,-5.626896180262207,1,2.359811228128993
6,19-May-2017,1,2,stim.wav,0,8,1199,-0.04185309717883652,1,2.359811228128993
6,19-May-2017,1,2,stim.wav,0,9,1416,5.1302930712383645,1,2.359811228128993
6,19-May-2017,1,2,stim.wav,0,10,1657,-5.0101084404853236,1,2.359811228128993
6,19-May-2017,1,2,stim.wav,0,11,1926,1.465457408218342,1,2.359811228128993
6,19-May-2017,1,2,stim.wav,0,12,2226,-1.4383527016195683,1,2.359811228128993
6,19-May-2017,1,2,stim.wav,0,13,2560,4.512488694540479,1,2.359811228128993
6,19-May-2017,1,2,stim.wav,0,14,2932,-7.714494312042509,1,2.359811228128993
6,19-May-2017,1,2,stim.wav,0,15,3346,3.3768161954942792,1,2.359811228128993
6,19-May-2017,1,2,stim.wav,0,16,3808,-2.1711888806526365,1,2.359811228128993
6,19-May-2017,1,2,stim.wav,0,17,4322,-0.7882040488828203,1,2.359811228128993
6,19-May-2017,1,2,stim.wav,0,18,4895,-1.6479301628461407,1,2.359811228128993
6,19-May-2017,1,2,stim.wav,0,19,5534,5.498305387810154,1,2.359811228128993
6,19-May-2017,1,2,stim.wav,0,20,6245,-0.6468044404569785,1,2.359811228128993
6,19-May-2017,1,2,stim.wav,0,21,7037,9.179573244768173,1,2.359811228128993
6,19-May-2017,1,2,stim.wav,0,22,7920,-5.043440162668624,1,2.359811228128993
6,19-May-2017,1,2,stim.wav,0,23,8904,2.457957146031448,1,2.359811228128993
6,19-May-2017,1,2,stim.wav,0,24,10000,2.471935752214521,1,2.359811228128993
6,19-May-2017,1,2,stim.wav,1,0,100,4.816744142306209,0,2.359811228128993
6,19-May-2017,1,2,stim.wav,1,1,191,4.327013752585326,0,2.359811228128993
6,19-May-2017,1,2,stim.wav,1,2,293,3.626247755733265,0,2.359811228128993
6,19-May-2017,1,2,stim.wav,1,3,406,-0.7305846419105382,0,2.359811228128993
6,19-May-2017,1,2,stim.wav,1,4,533,1.4375892580884606,0,2.359811228128993
6,19-May-2017,1,2,stim.wav,1,5,673,5.4689924860079735,0,2.359811228128993
6,19-May-2017,1,2,stim.wav,1,6,830,-6.155993567653786,0,2.359811228128993
6,19-May-2017,1,2,stim.wav,1,7,1004,-0.7786532055249108,0,2.359811228128993
6,19-May-2017,1,2,stim.wav,1,8,1199,-5.047428827484403,0,2.359811228128993
6,19-May-2017,1,2,stim.wav,1,9,1416,0.7033122140521362,0,2.359811228128993
6,19-May-2017,1,2,stim.wav,1,10,1657,-5.149573964570873,0,2.359811228128993
6,19-May-2017,1,2,stim.wav,1,11,1926,1.7701011922397136,0,2.359811228128993
6,19-May-2017,1,2,stim.wav,1,12,2226,5.644887172785894,0,2.359811228128993
6,19-May-2017,1,2,stim.wav,1,13,2560,-3.987695227983279,0,2.359811228128993
6,19-May-2017,1,2,stim.wav,1,14,2932,-1.101802867355582,0,2.359811228128993
6,19-May-2017,1,2,stim.wav,1,15,3346,-9.47882388687047,0,2.359811228128993
6,19-May-2017,1,2,stim.wav,1,16,3808,2.420690840156365,0,2.359811228128993
6,19-May-2017,1,2,stim.wav,1,17,4322,1.7199287159970968,0,2.359811228128993
6,19-May-2017,1,2,stim.wav,1,18,4895,3.8751259772660114,0,2.359811228128993
6,19-May-2017,1,2,stim.wav,1,19,5534,0.76876566953536,0,2.359811228128993
6,19-May-2017,1,2,stim.wav,1,20,6245,-2.9114687209358747,0,2.359811228128993
6,19-May-2017,1,2,stim.wav,1,21,7037,0.4730945769921147,0,2.359811228128993
6,19-May-2017,1,2,stim.wav,1,22,7920,3.4263225228965344,0,2.359811228128993
6,19-May-2017,1,2,stim.wav,1,23,8904,-3.638331660587897,0,2.359811228128993
6,19-May-2017,1,2,stim.wav,1,24,10000,0.2379693287125567,0,2.359811228128993
6,19-May-2017,1,3,stim.wav,0,0,100,-2.1784660318201348,1,2.475435538579695
6,19-May-2017,1,3,stim.wav,0,1,191,5.38000465260624,1,2.475435538579695
6,19-May-2017,1,3,stim.wav,0,2,293,-2.5915167934628363,1,2.475435538579695
6,19-May-2017,1,3,stim.wav,0,3,406,-2.470662387969046,1,2.475435538579695
6,19-May-2017,1,3,stim.wav,0,4,533,-1.9682210447934831,1,2.475435538579695
6,19-May-2017,1,3,stim.wav,0,5,673,-1.9834685717606373,1,2.475435538579695
6,19-May-2017,1,3,stim.wav,0,6,830,4.3460638626042165,1,2.475435538579695
6,19-May-2017,1,3,stim.wav,0,7,1004,-2.2052815139192536,1,2.475435538579695
6,19-May-2017,1,3,stim.wav,0,8,1199,-3.851831177791931,1,2.475435538579695
6,19-May-2017,1,3,stim.wav,0,9,1416,-1.590913514393879,1,2.475435538579695
6,19-May-2017,1,3,stim.wav,0,10,1657,-2.252269426658367,1,2.475435538579695
6,19-May-2017,1,3,stim.wav,0,11,1926,9.494064592103943,1,2.475435538579695
6,19-May-2017,1,3,stim.wav,0,12,2226,-4.773678278550463,1,2.475435538579695
6,19-May-2017,1,3,stim.wav,0,13,2560,-2.5953513844816207,1,2.475435538579695
6,19-May-2017,1,3,stim.wav,0,14,2932,3.692166499610838,1,2.475435538579695
6,19-May-2017,1,3,stim.wav,0,15,3346,-4.155473637961129,1,2.475435538579695
6,19-May-2017,1,3,stim.wav,0,16,3808,1.0691539575560525,1,2.475435538579695
6,19-May-2017,1,3,stim.wav,0,17,4322,1.2980388355723151,1,2.475435538579695
6,19-May-2017,1,3,stim.wav,0,18,4895,-7.3664230967682425,1,2.475435538579695
6,19-May-2017,1,3,stim.wav,0,19,5534,-6.178160122208133,1,2.475435538579695
6,19-May-2017,1,3,stim.wav,0,20,6245,-5.424747791407705,1,2.475435538579695
6,19-May-2017,1,3,stim.wav,0,21,7037,2.703055746932444,1,2.475435538579695
6,19-May-2017,1,3,stim.wav,0,22,7920,6.716767903193261,1,2.475435538579695
6,19-May-2017,1,3,stim.wav,0,23,8904,-6.712856949227291,1,2.475435538579695
6,19-May-2017,1,3,stim.wav,0,24,10000,-1.8939161624834582,1,2.475435538579695
6,19-May-2017,1,3,stim.wav,1,0,100,-3.7688280383657307,0,2.475435538579695
6,19-May-2017,1,3,stim.wav,1,1,191,7.658547590347143,0,2.475435538579695
6,19-May-2017,1,3,stim.wav,1,2,293,7.475992404337911,0,2.475435538579695
6,19-May-2017,1,3,stim.wav,1,3,406,-0.9058801163352331,0,2.475435538579695
6,19-May-2017,1,3,stim.wav,1,4,533,0.8046336842063712,0,2.475435538579695
6,19-May-2017,1,3,stim.wav,1,5,673,5.942964698240598,0,2.475435538579695
6,19-May-2017,1,3,stim.wav,1,6,830,-0.2071422161920719,0,2.475435538579695
6,19-May-2017,1,3,stim.wav,1,7,1004,7.838843663464569,0,2.475435538579695
6,19-May-2017,1,3,stim.wav,1,8,1199,-1.8133584012802872,0,2.475435538579695
6,19-May-2017,1,3,stim.wav,1,9,1416,4.039231769320516,0,2.475435538579695
6,19-May-2017,1,3,stim.wav,1,10,1657,-2.396193504428722,0,2.475435538579695
6,19-May-2017,1,3,stim.wav,1,11,1926,0.6924198639613757,0,2.475435538579695
6,19-May-2017,1,3,stim.wav,1,12,2226,7.8355992924015165,0,2.475435538579695
6,19-May-2017,1,3,stim.wav,1,13,2560,4.281779158235039,0,2.475435538579695
6,19-May-2017,1,3,stim.wav,1,14,2932,-0.803942482314771,0,2.475435538579695
6,19-May-2017,1,3,stim.wav,1,15,3346,6.617618709886664,0,2.475435538579695
6,19-May-2017,1,3,stim.wav,1,16,3808,-0.6664617499254356,0,2.475435538579695
6,19-May-2017,1,3,stim.wav,1,17,4322,-1.0459796894369036,0,2.475435538579695
6,19-May-2017,1,3,stim.wav,1,18,4895,9.213587464466196,0,2.475435538579695
6,19-May-2017,1,3,stim.wav,1,19,5534,0.5757609840452736,0,2.475435538579695
6,19-May-2017,1,3,stim.wav,1,20,6245,9.43949996109624,0,2.475435538579695
6,19-May-2017,1,3,stim.wav,1,21,7037,2.3831339302232513,0,2.475435538579695
6,19-May-2017,1,3,stim.wav,1,22,7920,0.7424748059891242,0,2.475435538579695
6,19-May-2017,1,3,stim.wav,1,23,8904,1.2001892291201037,0,2.475435538579695
6,19-May-2017,1,3,stim.wav,1,24,10000,3.2839030914657013,0,2.475435538579695
6,19-May-2017,1,4,stim.wav,0,0,100,-4.847879371286457,1,0.9849923283631618
6,19-May-2017,1,4,stim.wav,0,1,191,10.717573386984533,1,0.9849923283631618
6,19-May-2017,1,4,stim.wav,0,2,293,-0.688646883103478,1,0.9849923283631618
6,19-May-2017,1,4,stim.wav,0,3,406,-6.051393722201743,1,0.9849923283631618
6,19-May-2017,1,4,stim.wav,0,4,533,1.5497645707920906,1,0.9849923283631618
6,19-May-2017,1,4,stim.wav,0,5,673,6.134127046350835,1,0.9849923283631618
6,19-May-2017,1,4,stim.wav,0,6,830,1.2144244604823786,1,0.9849923283631618
6,19-May-2017,1,4,stim.wav,0,7,1004,6.923825286390461,1,0.9849923283631618
6,19-May-2017,1,4,stim.wav,0,8,1199,9.62385276453025,1,0.9849923283631618
6,19-May-2017,1,4,stim.wav,0,9,1416,-5.806072673624985,1,0.9849923283631618
6,19-May-2017,1,4,stim.wav,0,10,1657,-5.852117474237301,1,0.9849923283631618
6,19-May-2017,1,4,stim.wav,0,11,1926,0.03719614653499336,1,0.9849923283631618
6,19-May-2017,1,4,stim.wav,0,12,2226,0.7654756160786873,1,0.9849923283631618
6,19-May-2017,1,4,stim.wav,0,13,2560,1.048355577522682,1,0.9849923283631618
6,19-May-2017,1,4,stim.wav,0,14,2932,-1.6553703040115928,1,0.9849923283631618
6,19-May-2017,1,4,stim.wav,0,15,3346,1.9969181166029872,1,0.9849923283631618
6,19-May-2017,1,4,stim.wav,0,16,3808,-5.040258064150342,1,0.9849923283631618
6,19-May-2017,1,4,stim.wav,0,17,4322,3.4919437586307285,1,0.9849923283631618
6,19-May-2017,1,4,stim.wav,0,18,4895,-9.87545828583017,1,0.9849923283631618
6,19-May-2017,1,4,stim.wav,0,19,5534,-2.558666291868581,1,0.9849923283631618
6,19-May-2017,1,4,stim.wav,0,20,6245,10.096738578888312,1,0.9849923283631618
6,19-May-2017,1,4,stim.wav,0,21,7037,-2.200716898183556,1,0.9849923283631618
6,19-May-2017,1,4,stim.wav,0,22,7920,-6.217462858214798,1,0.9849923283631618
6,19-May-2017,1,4,stim.wav,0,23,8904,1.216423924350032,1,0.9849923283631618
6,19-May-2017,1,4,stim.wav,0,24,10000,5.921504744082695,1,0.9849923283631618
6,19-May-2017,1,4,stim.wav,1,0,100,-4.722083890482448,0,0.9849923283631618
6,19-May-2017,1,4,stim.wav,1,1,191,10.454779958817465,0,0.9849923283631618
6,19-May-2017,1,4,stim.wav,1,2,293,-3.89023142877698,0,0.9849923283631618
6,19-May-2017,1,4,stim.wav,1,3,406,-0.3246194332125885,0,0.9849923283631618
6,19-May-2017,1,4,stim.wav,1,4,533,5.99194835665148,0,0.9849923283631618
6,19-May-2017,1,4,stim.wav,1,5,673,5.2695223429418565,0,0.9849923283631618
6,19-May-2017,1,4,stim.wav,1,6,830,-1.8889190535162639,0,0.9849923283631618
6,19-May-2017,1,4,stim.wav,1,7,1004,0.7978695274796683,0,0.9849923283631618
6,19-May-2017,1,4,stim.wav,1,8,1199,1.177062585162075,0,0.9849923283631618
6,19-May-2017,1,4,stim.wav,1,9,1416,-1.2495386524872376,0,0.9849923283631618
6,19-May-2017,1,4,stim.wav,1,10,1657,-0.10979184218886896,0,0.9849923283631618
6,19-May-2017,1,4,stim.wav,1,11,1926,-3.6740664535277663,0,0.9849923283631618
6,19-May-2017,1,4,stim.wav,1,12,2226,-3.084016303405037,0,0.9849923283631618
6,19-May-2017,1,4,stim.wav,1,13,2560,-1.5611540431209576,0,0.9849923283631618
6,19-May-2017,1,4,stim.wav,1,14,2932,-6.453662110465974,0,0.9849923283631618
6,19-May-2017,1,4,stim.wav,1,15,3346,-10.845567545095117,0,0.9849923283631618
6,19-May-2017,1,4,stim.wav,1,16,3808,-6.130641173126249,0,0.9849923283631618
6,19-May-2017,1,4,stim.wav,1,17,4322,5.942063767952373,0,0.9849923283631618
6,19-May-2017,1,4,stim.wav,1,18,4895,-11.841461046176793,0,0.9849923283631618
6,19-May-2017,1,4,stim.wav,1,19,5534,7.099502580752315,0,0.9849923283631618
6,19-May-2017,1,4,stim.wav,1,20,6245,-4.099884334106502,0,0.9849923283631618
6,19-May-2017,1,4,stim.wav,1,21,7037,-5.097564932832244,0,0.9849923283631618
6,19-May-2017,1,4,stim.wav,1,22,7920,-2.788407886664544,0,0.9849923283631618
6,19-May-2017,1,4,stim.wav,1,23,8904,1.033844274076323,0,0.9849923283631618
6,19-May-2017,1,4,stim.wav,1,24,10000,-4.374564693283278,0,0.9849923283631618
6,19-May-2017,1,5,stim.wav,0,0,100,6.7137371775753865,1,0.7717369030534312
6,19-May-2017,1,5,stim.wav,0,1,191,4.172342413581546,1,0.7717369030534312
6,19-May-2017,1,5,stim.wav,0,2,293,-5.758216001265487,1,0.7717369030534312
6,19-May-2017,1,5,stim.wav,0,3,406,9.475552974892077,1,0.7717369030534312
6,19-May-2017,1,5,stim.wav,0,4,533,2.2452736171958025,1,0.7717369030534312
6,19-May-2017,1,5,stim.wav,0,5,673,-7.625439469761103,1,0.7717369030534312
6,19-May-2017,1,5,stim.wav,0,6,830,-5.179464629971349,1,0.7717369030534312
6,19-May-2017,1,5,stim.wav,0,7,1004,3.061524385296868,1,0.7717369030534312
6,19-May-2017,1,5,stim.wav,0,8,1199,-0.49663485576834643,1,0.7717369030534312
6,19-May-2017,1,5,stim.wav,0,9,1416,-0.6165175315967959,1,0.7717369030534312
6,19-May-2017,1,5,stim.wav,0,10,1657,-3.210922810133927,1,0.7717369030534312
6,19-May-2017,1,5,stim.wav,0,11,1926,-9.72048492527518,1,0.7717369030534312
6,19-May-2017,1,5,stim.wav,0,12,2226,5.501684655745103,1,0.7717369030534312
6,19-May-2017,1,5,stim.wav,0,13,2560,0.017523100248016326,1,0.7717369030534312
6,19-May-2017,1,5,stim.wav,0,14,2932,1.358656194099542,1,0.7717369030534312
6,19-May-2017,1,5,stim.wav,0,15,3346,-3.360069988728581,1,0.7717369030534312
6,19-May-2017,1,5,stim.wav,0,16,3808,-1.030002787716139,1,0.7717369030534312
6,19-May-2017,1,5,stim.wav,0,17,4322,-5.428022660848134,1,0.7717369030534312
6,19-May-2017,1,5,stim.wav,0,18,4895,-0.08671929911783871,1,0.7717369030534312
6,19-May-2017,1,5,stim.wav,0,19,5534,-0.9007577927634458,1,0.7717369030534312
6,19-May-2017,1,5,stim.wav,0,20,6245,-6.739522628505168,1,0.7717369030534312
6,19-May-2017,1,5,stim.wav,0,21,7037,-3.8300619957271227,1,0.7717369030534312
6,19-May-2017,1,5,stim.wav,0,22,7920,3.444846343129175,1,0.7717369030534312
6,19-May-2017,1,5,stim.wav,0,23,8904,-0.7700116952745001,1,0.7717369030534312
6,19-May-2017,1,5,stim.wav,0,24,10000,-8.735253225655818,1,0.7717369030534312
6,19-May-2017,1,5,stim.wav,1,0,100,5.098159043574983,0,0.7717369030534312
6,19-May-2017,1,5,stim.wav,1,1,191,6.335449692787092,0,0.7717369030534312
6,19-May-2017,1,5,stim.wav,1,2,293,-7.776074070322215,0,0.7717369030534312
6,19-May-2017,1,5,stim.wav,1,3,406,5.377770693747481,0,0.7717369030534312
6,19-May-2017,1,5,stim.wav,1,4,533,0.5640317090736345,0,0.7717369030534312
6,19-May-2017,1,5,stim.wav,1,5,673,4.282622003232896,0,0.7717369030534312
6,19-May-2017,1,5,stim.wav,1,6,830,2.737692629091575,0,0.7717369030534312
6,19-May-2017,1,5,stim.wav,1,7,1004,7.339998259734001,0,0.7717369030534312
6,19-May-2017,1,5,stim.wav,1,8,1199,-7.8403433358246115,0,0.7717369030534312
6,19-May-2017,1,5,stim.wav,1,9,1416,7.240452299958468,0,0.7717369030534312
6,19-May-2017,1,5,stim.wav,1,10,1657,-1.515244326275549,0,0.7717369030534312
6,19-May-2017,1,5,stim.wav,1,11,1926,-5.744667710645786,0,0.7717369030534312
6,19-May-2017,1,5,stim.wav,1,12,2226,-5.826972419420741,0,0.7717369030534312
6,19-May-2017,1,5,stim.wav,1,13,2560,-0.4572633696981943,0,0.7717369030534312
6,19-May-2017,1,5,stim.wav,1,14,2932,4.423249644758847,0,0.7717369030534312
6,19-May-2017,1,5,stim.wav,1,15,3346,1.3962353011467639,0,0.7717369030534312
6,19-May-2017,1,5,stim.wav,1,16,3808,2.6232481243280095,0,0.7717369030534312
6,19-May-2017,1,5,stim.wav,1,17,4322,3.0452175148257368,0,0.7717369030534312
6,19-May-2017,1,5,stim.wav,1,18,4895,3.005014210881157,0,0.7717369030534312
6,19-May-2017,1,5,stim.wav,1,19,5534,3.0627058118076134,0,0.7717369030534312
6,19-May-2017,1,5,stim.wav,1,20,6245,-4.5206182909947215,0,0.7717369030534312
6,19-May-2017,1,5,stim.wav,1,21,7037,6.342328152347873,0,0.7717369030534312
6,19-May-2017,1,5,stim.wav,1,22,7920,1.7703785200310118,0,0.7717369030534312
6,19-May-2017,1,5,stim.wav,1,23,8904,-5.329556385919631,0,0.7717369030534312
6,19-May-2017,1,5,stim.wav,1,24,10000,-4.08017180851421,0,0.7717369030534312
6,19-May-2017,1,6,stim.wav,0,0,100,-8.58196117098548,1,1.1614430545601337
6,19-May-2017,1,6,stim.wav,0,1,191,0.5058863705524839,1,1.1614430545601337
6,19-May-2017,1,6,stim.wav,0,2,293,-1.4881366535807883,1,1.1614430545601337
6,19-May-2017,1,6,stim.wav,0,3,406,-4.7118973809698375,1,1.1614430545601337
6,19-May-2017,1,6,stim.wav,0,4,533,-1.706049891746034,1,1.1614430545601337
6,19-May-2017,1,6,stim.wav,0,5,673,0.8419392594409771,1,1.1614430545601337
6,19-May-2017,1,6,stim.wav,0,6,830,7.157737308848869,1,1.1614430545601337
6,19-May-2017,1,6,stim.wav,0,7,1004,-5.044660652475427,1,1.1614430545601337
6,19-May-2017,1,6,stim.wav,0,8,1199,-4.217449187693066,1,1.1614430545601337
6,19-May-2017,1,6,stim.wav,0,9,1416,-12.237742287042488,1,1.1614430545601337
6,19-May-2017,1,6,stim.wav,0,10,1657,-3.2977291731421987,1,1.1614430545601337
6,19-May-2017,1,6,stim.wav,0,11,1926,0.5473397390067445,1,1.1614430545601337
6,19-May-2017,1,6,stim.wav,0,12,2226,-3.749332103340594,1,1.1614430545601337
6,19-May-2017,1,6,stim.wav,0,13,2560,-6.419388393748065,1,1.1614430545601337
6,19-May-2017,1,6,stim.wav,0,14,2932,-4.3253584464576535,1,1.1614430545601337
6,19-May-2017,1,6,stim.wav,0,15,3346,3.086629874756712,1,1.1614430545601337
6,19-May-2017,1,6,stim.wav,0,16,3808,0.2631256781069879,1,1.1614430545601337
6,19-May-2017,1,6,stim.wav,0,17,4322,-9.048263884789918,1,1.1614430545601337
6,19-May-2017,1,6,stim.wav,0,18,4895,-5.898028557490238,1,1.1614430545601337
6,19-May-2017,1,6,stim.wav,0,19,5534,0.3898498284600552,1,1.1614430545601337
6,19-May-2017,1,6,stim.wav,0,20,6245,7.230499495812911,1,1.1614430545601337
6,19-May-2017,1,6,stim.wav,0,21,7037,-6.482606204394567,1,1.1614430545601337
6,19-May-2017,1,6,stim.wav,0,22,7920,3.9489561102213337,1,1.1614430545601337
6,19-May-2017,1,6,stim.wav,0,23,8904,1.8302581664875015,1,1.1614430545601337
6,19-May-2017,1,6,stim.wav,0,24,10000,3.6109633151404124,1,1.1614430545601337
6,19-May-2017,1,6,stim.wav,1,0,100,-2.8236464426739123,0,1.1614430545601337
6,19-May-2017,1,6,stim.wav,1,1,191,2.0815946747964285,0,1.1614430545601337
6,19-May-2017,1,6,stim.wav,1,2,293,-0.013448835834548502,0,1.1614430545601337
6,19-May-2017,1,6,stim.wav,1,3,406,2.778643003635743,0,1.1614430545601337
6,19-May-2017,1,6,stim.wav,1,4,533,8.676703802846907,0,1.1614430545601337
6,19-May-2017,1,6,stim.wav,1,5,673,-0.9346400114176461,0,1.1614430545601337
6,19-May-2017,1,6,stim.wav,1,6,830,1.9556260879083625,0,1.1614430545601337
6,19-May-2017,1,6,stim.wav,1,7,1004,-1.8052289595316577,0,1.1614430545601337
6,19-May-2017,1,6,stim.wav,1,8,1199,-1.020573702500513,0,1.1614430545601337
6,19-May-2017,1,6,stim.wav,1,9,1416,-7.35328623064483,0,1.1614430545601337
6,19-May-2017,1,6,stim.wav,1,10,1657,7.40320657766501,0,1.1614430545601337
6,19-May-2017,1,6,stim.wav,1,11,1926,-1.5036084439103534,0,1.1614430545601337
6,19-May-2017,1,6,stim.wav,1,12,2226,-5.490684260662198,0,1.1614430545601337
6,19-May-2017,1,6,stim.wav,1,13,2560,-1.3039700959630909,0,1.1614430545601337
6,19-May-2017,1,6,stim.wav,1,14,2932,2.4080388195850664,0,1.1614430545601337
6,19-May-2017,1,6,stim.wav,1,15,3346,3.249622120763803,0,1.1614430545601337
6,19-May-2017,1,6,stim.wav,1,16,3808,1.9153813805637636,0,1.1614430545601337
6,19-May-2017,1,6,stim.wav,1,17,4322,-2.2242500963048903,0,1.1614430545601337
6,19-May-2017,1,6,stim.wav,1,18,4895,3.5685879532915274,0,1.1614430545601337
6,19-May-2017,1,6,stim.wav,1,19,5534,-8.41363400951498,0,1.1614430545601337
6,19-May-2017,1,6,stim.wav,1,20,6245,1.8139118696259084,0,1.1614430545601337
6,19-May-2017,1,6,stim.wav,1,21,7037,2.8724098426862774,0,1.1614430545601337
6,19-May-2017,1,6,stim.wav,1,22,7920,-1.5230063457690401,0,1.1614430545601337
6,19-May-2017,1,6,stim.wav,1,23,8904,1.3809434359386468,0,1.1614430545601337
6,19-May-2017,1,6,stim.wav,1,24,10000,-2.0297305712495044,0,1.1614430545601337
6,19-May-2017,1,7,stim.wav,0,0,100,-1.832709788048252,0,1.0921749304250103
6,19-May-2017,1,7,stim.wav,0,1,191,2.5773512903534304,0,1.0921749304250103
6,19-May-2017,1,7,stim.wav,0,2,293,0.3108707526568902,0,1.0921749304250103
6,19-May-2017,1,7,stim.wav,0,3,406,2.9956827034380233,0,1.0921749304250103
6,19-May-2017,1,7,stim.wav,0,4,533,-2.165381025061727,0,1.0921749304250103
6,19-May-2017,1,7,stim.wav,0,5,673,6.180115315605352,0,1.0921749304250103
6,19-May-2017,1,7,stim.wav,0,6,830,-5.5099693988771286,0,1.0921749304250103
6,19-May-2017,1,7,stim.wav,0,7,1004,-12.008896021194635,0,1.0921749304250103
6,19-May-2017,1,7,stim.wav,0,8,1199,-3.081268823388315,0,1.0921749304250103
6,19-May-2017,1,7,stim.wav,0,9,1416,0.5838186934010097,0,1.0921749304250103
6,19-May-2017,1,7,stim.wav,0,10,1657,-4.85825517537727,0,1.0921749304250103
6,19-May-2017,1,7,stim.wav,0,11,1926,-1.9224196621267495,0,1.0921749304250103
6,19-May-2017,1,7,stim.wav,0,12,2226,-7.908225049597574,0,1.0921749304250103
6,19-May-2017,1,7,stim.wav,0,13,2560,-0.6650588688250816,0,1.0921749304250103
6,19-May-2017,1,7,stim.wav,0,14,2932,5.412802404623411,0,1.0921749304250103
6,19-May-2017,1,7,stim.wav,0,15,3346,-0.007699268123421825,0,1.0921749304250103
6,19-May-2017,1,7,stim.wav,0,16,3808,-1.788352073316792,0,1.0921749304250103
6,19-May-2017,1,7,stim.wav,0,17,4322,6.310489149604863,0,1.0921749304250103
6,19-May-2017,1,7,stim.wav,0,18,4895,4.010267365994759,0,1.0921749304250103
6,19-May-2017,1,7,stim.wav,0,19,5534,0.42709848632828107,0,1.0921749304250103
6,19-May-2017,1,7,stim.wav,0,20,6245,0.25192950604289077,0,1.0921749304250103
6,19-May-2017,1,7,stim.wav,0,21,7037,-2.7985286403540903,0,1.0921749304250103
6,19-May-2017,1,7,stim.wav,0,22,7920,0.11819041671067752,0,1.0921749304250103
6,19-May-2017,1,7,stim.wav,0,23,8904,-1.0851593394685835,0,1.0921749304250103
6,19-May-2017,1,7,stim.wav,0,24,10000,0.680337206402482,0,1.0921749304250103
6,19-May-2017,1,7,stim.wav,1,0,100,1.204343648193042,1,1.0921749304250103
6,19-May-2017,1,7,stim.wav,1,1,191,5.672188164484609,1,1.0921749304250103
6,19-May-2017,1,7,stim.wav,1,2,293,-4.984325568138369,1,1.0921749304250103
6,19-May-2017,1,7,stim.wav,1,3,406,5.564299179951037,1,1.0921749304250103
6,19-May-2017,1,7,stim.wav,1,4,533,10.180234711790119,1,1.0921749304250103
6,19-May-2017,1,7,stim.wav,1,5,673,-9.380983523850313,1,1.0921749304250103
6,19-May-2017,1,7,stim.wav,1,6,830,6.9834528820279775,1,1.0921749304250103
6,19-May-2017,1,7,stim.wav,1,7,1004,6.006306806830036,1,1.0921749304250103
6,19-May-2017,1,7,stim.wav,1,8,1199,10.336372396821128,1,1.0921749304250103
6,19-May-2017,1,7,stim.wav,1,9,1416,3.11734784816779,1,1.0921749304250103
6,19-May-2017,1,7,stim.wav,1,10,1657,3.200264181805699,1,1.0921749304250103
6,19-May-2017,1,7,stim.wav,1,11,1926,-1.7050019012876614,1,1.0921749304250103
6,19-May-2017,1,7,stim.wav,1,12,2226,-3.586727759738893,1,1.0921749304250103
6,19-May-2017,1,7,stim.wav,1,13,2560,-4.293430811260512,1,1.0921749304250103
6,19-May-2017,1,7,stim.wav,1,14,2932,4.198350234790812,1,1.0921749304250103
6,19-May-2017,1,7,stim.wav,1,15,3346,5.552977855623393,1,1.0921749304250103
6,19-May-2017,1,7,stim.wav,1,16,3808,-1.3388545344484122,1,1.0921749304250103
6,19-May-2017,1,7,stim.wav,1,17,4322,-7.652795169285071,1,1.0921749304250103
6,19-May-2017,1,7,stim.wav,1,18,4895,-2.7403216747615016,1,1.0921749304250103
6,19-May-2017,1,7,stim.wav,1,19,5534,1.7440954437932967,1,1.0921749304250103
6,19-May-2017,1,7,stim.wav,1,20,6245,1.0734517140016337,1,1.0921749304250103
6,19-May-2017,1,7,stim.wav,1,21,7037,-0.37292808755539075,1,1.0921749304250103
6,19-May-2017,1,7,stim.wav,1,22,7920,-1.83297120312264,1,1.0921749304250103
6,19-May-2017,1,7,stim.wav,1,23,8904,9.045058241371274,1,1.0921749304250103
6,19-May-2017,1,7,stim.wav,1,24,10000,0.19365375908446802,1,1.0921749304250103
6,19-May-2017,1,8,stim.wav,0,0,100,2.696318616809882,1,1.1058319834559485
6,19-May-2017,1,8,stim.wav,0,1,191,-3.0580900300483256,1,1.1058319834559485
6,19-May-2017,1,8,stim.wav,0,2,293,0.04963547519727892,1,1.1058319834559485
6,19-May-2017,1,8,stim.wav,0,3,406,4.822856227922147,1,1.1058319834559485
6,19-May-2017,1,8,stim.wav,0,4,533,0.753763905663209,1,1.1058319834559485
6,19-May-2017,1,8,stim.wav,0,5,673,-10.930265997404355,1,1.1058319834559485
6,19-May-2017,1,8,stim.wav,0,6,830,-4.6921891320751,1,1.1058319834559485
6,19-May-2017,1,8,stim.wav,0,7,1004,1.7828367121725934,1,1.1058319834559485
6,19-May-2017,1,8,stim.wav,0,8,1199,1.9867008416867125,1,1.1058319834559485
6,19-May-2017,1,8,stim.wav,0,9,1416,-2.6143596695735445,1,1.1058319834559485
6,19-May-2017,1,8,stim.wav,0,10,1657,-0.9358450864913893,1,1.1058319834559485
6,19-May-2017,1,8,stim.wav,0,11,1926,-2.782152085712075,1,1.1058319834559485
6,19-May-2017,1,8,stim.wav,0,12,2226,7.945219338950809,1,1.1058319834559485
6,19-May-2017,1,8,stim.wav,0,13,2560,-5.837296178312977,1,1.1058319834559485
6,19-May-2017,1,8,stim.wav,0,14,2932,-1.904004631951828,1,1.1058319834559485
6,19-May-2017,1,8,stim.wav,0,15,3346,1.7860990557899101,1,1.1058319834559485
6,19-May-2017,1,8,stim.wav,0,16,3808,7.174844727937472,1,1.1058319834559485
6,19-May-2017,1,8,stim.wav,0,17,4322,0.07764971183936431,1,1.1058319834559485
6,19-May-2017,1,8,stim.wav,0,18,4895,-0.7737892332320304,1,1.1058319834559485
6,19-May-2017,1,8,stim.wav,0,19,5534,-5.218595216517599,1,1.1058319834559485
6,19-May-2017,1,8,stim.wav,0,20,6245,-1.3177185445045523,1,1.1058319834559485
6,19-May-2017,1,8,stim.wav,0,21,7037,-3.376627327743586,1,1.1058319834559485
6,19-May-2017,1,8,stim.wav,0,22,7920,3.000487085601095,1,1.1058319834559485
6,19-May-2017,1,8,stim.wav,0,23,8904,8.973016224082313,1,1.1058319834559485
6,19-May-2017,1,8,stim.wav,0,24,10000,3.3117723926422657,1,1.1058319834559485
6,19-May-2017,1,8,stim.wav,1,0,100,4.576130050781847,0,1.1058319834559485
6,19-May-2017,1,8,stim.wav,1,1,191,1.362548606625986,0,1.1058319834559485
6,19-May-2017,1,8,stim.wav,1,2,293,-8.526528590036257,0,1.1058319834559485
6,19-May-2017,1,8,stim.wav,1,3,406,-5.001712428195341,0,1.1058319834559485
6,19-May-2017,1,8,stim.wav,1,4,533,6.9290908490228915,0,1.1058319834559485
6,19-May-2017,1,8,stim.wav,1,5,673,4.933910603640102,0,1.1058319834559485
6,19-May-2017,1,8,stim.wav,1,6,830,0.9651469637885193,0,1.1058319834559485
6,19-May-2017,1,8,stim.wav,1,7,1004,-0.386625951845525,0,1.1058319834559485
6,19-May-2017,1,8,stim.wav,1,8,1199,-2.4618383695225434,0,1.1058319834559485
6,19-May-2017,1,8,stim.wav,1,9,1416,-4.116881998039104,0,1.1058319834559485
6,19-May-2017,1,8,stim.wav,1,10,1657,-2.2783705330238377,0,1.1058319834559485
6,19-May-2017,1,8,stim.wav,1,11,1926,-3.418124070690214,0,1.1058319834559485
6,19-May-2017,1,8,stim.wav,1,12,2226,-5.360453311351904,0,1.1058319834559485
6,19-May-2017,1,8,stim.wav,1,13,2560,3.461620552913542,0,1.1058319834559485
6,19-May-2017,1,8,stim.wav,1,14,2932,10.164078080081618,0,1.1058319834559485
6,19-May-2017,1,8,stim.wav,1,15,3346,5.349623957970198,0,1.1058319834559485
6,19-May-2017,1,8,stim.wav,1,16,3808,0.13008409574230073,0,1.1058319834559485
6,19-May-2017,1,8,stim.wav,1,17,4322,6.193790013058224,0,1.1058319834559485
6,19-May-2017,1,8,stim.wav,1,18,4895,-5.452156252869457,0,1.1058319834559485
6,19-May-2017,1,8,stim.wav,1,19,5534,-4.51293970500185,0,1.1058319834559485
6,19-May-2017,1,8,stim.wav,1,20,6245,2.5143630766707608,0,1.1058319834559485
6,19-May-2017,1,8,stim.wav,1,21,7037,3.1420851084327825,0,1.1058319834559485
6,19-May-2017,1,8,stim.wav,1,22,7920,-1.888619860884839,0,1.1058319834559485
6,19-May-2017,1,8,stim.wav,1,23,8904,-12.023079780300288,0,1.1058319834559485
6,19-May-2017,1,8,stim.wav,1,24,10000,5.484385824226531,0,1.1058319834559485
6,19-May-2017,1,9,stim.wav,0,0,100,3.2480959945541983,0,1.291982669113836
6,19-May-2017,1,9,stim.wav,0,1,191,-2.302310908905765,0,1.291982669113836
6,19-May-2017,1,9,stim.wav,0,2,293,-8.746843682196072,0,1.291982669113836
6,19-May-2017,1,9,stim.wav,0,3,406,-7.176792225916921,0,1.291982669113836
6,19-May-2017,1,9,stim.wav,0,4,533,3.5044833910979505,0,1.291982669113836
6,19-May-2017,1,9,stim.wav,0,5,673,1.273226939467465,0,1.291982669113836
6,19-May-2017,1,9,stim.wav,0,6,830,-3.050019929312366,0,1.291982669113836
6,19-May-2017,1,9,stim.wav,0,7,1004,-2.515032066402581,0,1.291982669113836
6,19-May-2017,1,9,stim.wav,0,8,1199,-2.0939526010939544,0,1.291982669113836
6,19-May-2017,1,9,stim.wav,0,9,1416,0.30034245194632914,0,1.291982669113836
6,19-May-2017,1,9,stim.wav,0,10,1657,-6.883440049966248,0,1.291982669113836
6,19-May-2017,1,9,stim.wav,0,11,1926,0.9732500671036427,0,1.291982669113836
6,19-May-2017,1,9,stim.wav,0,12,2226,2.084503678273461,0,1.291982669113836
6,19-May-2017,1,9,stim.wav,0,13,2560,4.419978633662999,0,1.291982669113836
6,19-May-2017,1,9,stim.wav,0,14,2932,-0.887372749630869,0,1.291982669113836
6,19-May-2017,1,9,stim.wav,0,15,3346,6.768789124508313,0,1.291982669113836
6,19-May-2017,1,9,stim.wav,0,16,3808,-6.069843014126873,0,1.291982669113836
6,19-May-2017,1,9,stim.wav,0,17,4322,4.033370519114017,0,1.291982669113836
6,19-May-2017,1,9,stim.wav,0,18,4895,0.05218502544164663,0,1.291982669113836
6,19-May-2017,1,9,stim.wav,0,19,5534,-1.0391265201358781,0,1.291982669113836
6,19-May-2017,1,9,stim.wav,0,20,6245,-2.342024297613369,0,1.291982669113836
6,19-May-2017,1,9,stim.wav,0,21,7037,-5.2698199829838375,0,1.291982669113836
6,19-May-2017,1,9,stim.wav,0,22,7920,-1.7891018996063766,0,1.291982669113836
6,19-May-2017,1,9,stim.wav,0,23,8904,-6.016194158324452,0,1.291982669113836
6,19-May-2017,1,9,stim.wav,0,24,10000,0.2682009742072333,0,1.291982669113836
6,19-May-2017,1,9,stim.wav,1,0,100,0.1811130461957961,1,1.291982669113836
6,19-May-2017,1,9,stim.wav,1,1,191,2.6935284677216864,1,1.291982669113836
6,19-May-2017,1,9,stim.wav,1,2,293,3.597053111035511,1,1.291982669113836
6,19-May-2017,1,9,stim.wav,1,3,406,1.8801368267339236,1,1.291982669113836
6,19-May-2017,1,9,stim.wav,1,4,533,11.228565089555502,1,1.291982669113836
6,19-May-2017,1,9,stim.wav,1,5,673,-3.736532322253882,1,1.291982669113836
6,19-May-2017,1,9,stim.wav,1,6,830,-6.0854867141796,1,1.291982669113836
6,19-May-2017,1,9,stim.wav,1,7,1004,-3.798064538116064,1,1.291982669113836
6,19-May-2017,1,9,stim.wav,1,8,1199,1.4878857205082712,1,1.291982669113836
6,19-May-2017,1,9,stim.wav,1,9,1416,-8.651547250814653,1,1.291982669113836
6,19-May-2017,1,9,stim.wav,1,10,1657,1.9356514171277523,1,1.291982669113836
6,19-May-2017,1,9,stim.wav,1,11,1926,-0.2502480732577647,1,1.291982669113836
6,19-May-2017,1,9,stim.wav,1,12,2226,3.9457327615625326,1,1.291982669113836
6,19-May-2017,1,9,stim.wav,1,13,2560,-3.92398703565282,1,1.291982669113836
6,19-May-2017,1,9,stim.wav,1,14,2932,4.317210408811998,1,1.291982669113836
6,19-May-2017,1,9,stim.wav,1,15,3346,11.099599000910874,1,1.291982669113836
6,19-May-2017,1,9,stim.wav,1,16,3808,3.2829361485642226,1,1.291982669113836
6,19-May-2017,1,9,stim.wav,1,17,4322,-2.898146359563973,1,1.291982669113836
6,19-May-2017,1,9,stim.wav,1,18,4895,-1.6074437918494926,1,1.291982669113836
6,19-May-2017,1,9,stim.wav,1,19,5534,-8.888659969580564,1,1.291982669113836
6,19-May-2017,1,9,stim.wav,1,20,6245,-1.477267716672783,1,1.291982669113836
6,19-May-2017,1,9,stim.wav,1,21,7037,2.9443834586124056,1,1.291982669113836
6,19-May-2017,1,9,stim.wav,1,22,7920,-4.154693179029973,1,1.291982669113836
6,19-May-2017,1,9,stim.wav,1,23,8904,-1.8368154822162532,1,1.291982669113836
6,19-May-2017,1,9,stim.wav,1,24,10000,5.586384762446168,1,1.291982669113836
6,19-May-2017,1,10,stim.wav,0,0,100,-4.154091714290617,1,0.8271129500992951
6,19-May-2017,1,10,stim.wav,0,1,191,4.383382187192466,1,0.8271129500992951
6,19-May-2017,1,10,stim.wav,0,2,293,2.6529677588924017,1,0.8271129500992951
6,19-May-2017,1,10,stim.wav,0,3,406,2.6046053092645964,1,0.8271129500992951
6,19-May-2017,1,10,stim.wav,0,4,533,4.443561253556523,1,0.8271129500992951
6,19-May-2017,1,10,stim.wav,0,5,673,-2.8671755091496647,1,0.8271129500992951
6,19-May-2017,1,10,stim.wav,0,6,830,8.236017116267613,1,0.8271129500992951
6,19-May-2017,1,10,stim.wav,0,7,1004,-7.782937214010648,1,0.8271129500992951
6,19-May-2017,1,10,stim.wav,0,8,1199,-2.78733570644339,1,0.8271129500992951
6,19-May-2017,1,10,stim.wav,0,9,1416,11.550318192974213,1,0.8271129500992951
6,19-May-2017,1,10,stim.wav,0,10,1657,-3.0394962338688587,1,0.8271129500992951
6,19-May-2017,1,10,stim.wav,0,11,1926,5.001607244080331,1,0.8271129500992951
6,19-May-2017,1,10,stim.wav,0,12,2226,-2.3041480937326346,1,0.8271129500992951
6,19-May-2017,1,10,stim.wav,0,13,2560,-3.5031283982626893,1,0.8271129500992951
6,19-May-2017,1,10,stim.wav,0,14,2932,-5.078566148453155,1,0.8271129500992951
6,19-May-2017,1,10,stim.wav,0,15,3346,-3.3238149493612257,1,0.8271129500992951
6,19-May-2017,1,10,stim.wav,0,16,3808,6.493863795654214,1,0.8271129500992951
6,19-May-2017,1,10,stim.wav,0,17,4322,-5.4919080288538655,1,0.8271129500992951
6,19-May-2017,1,10,stim.wav,0,18,4895,-0.8089033591757534,1,0.8271129500992951
6,19-May-2017,1,10,stim.wav,0,19,5534,4.016460938991534,1,0.8271129500992951
6,19-May-2017,1,10,stim.wav,0,20,6245,3.848607961670138,1,0.8271129500992951
6,19-May-2017,1,10,stim.wav,0,21,7037,-6.496724628452268,1,0.8271129500992951
6,19-May-2017,1,10,stim.wav,0,22,7920,1.3084693566213255,1,0.8271129500992951
6,19-May-2017,1,10,stim.wav,0,23,8904,1.6239420248228438,1,0.8271129500992951
6,19-May-2017,1,10,stim.wav,0,24,10000,10.589826341851474,1,0.8271129500992951
6,19-May-2017,1,10,stim.wav,1,0,100,-4.029555223484904,0,0.8271129500992951
6,19-May-2017,1,10,stim.wav,1,1,191,8.041141197555973,0,0.8271129500992951
6,19-May-2017,1,10,stim.wav,1,2,293,-11.616514570850004,0,0.8271129500992951
6,19-May-2017,1,10,stim.wav,1,3,406,-3.4037221653196,0,0.8271129500992951
6,19-May-2017,1,10,stim.wav,1,4,533,-0.8197239848663261,0,0.8271129500992951
6,19-May-2017,1,10,stim.wav,1,5,673,5.535657057786889,0,0.8271129500992951
6,19-May-2017,1,10,stim.wav,1,6,830,-1.639369919102157,0,0.8271129500992951
6,19-May-2017,1,10,stim.wav,1,7,1004,-1.7226996179138456,0,0.8271129500992951
6,19-May-2017,1,10,stim.wav,1,8,1199,5.6307394465336635,0,0.8271129500992951
6,19-May-2017,1,10,stim.wav,1,9,1416,1.0197876871319438,0,0.8271129500992951
6,19-May-2017,1,10,stim.wav,1,10,1657,-1.621244316622335,0,0.8271129500992951
6,19-May-2017,1,10,stim.wav,1,11,1926,-7.054674668604614,0,0.8271129500992951
6,19-May-2017,1,10,stim.wav,1,12,2226,-1.1956400994344512,0,0.8271129500992951
6,19-May-2017,1,10,stim.wav,1,13,2560,-3.943349219898735,0,0.8271129500992951
6,19-May-2017,1,10,stim.wav,1,14,2932,1.843642124113688,0,0.8271129500992951
6,19-May-2017,1,10,stim.wav,1,15,3346,-10.211787106324572,0,0.8271129500992951
6,19-May-2017,1,10,stim.wav,1,16,3808,9.380765486006116,0,0.8271129500992951
6,19-May-2017,1,10,stim.wav,1,17,4322,2.400715683999789,0,0.8271129500992951
6,19-May-2017,1,10,stim.wav,1,18,4895,6.473818684643771,0,0.8271129500992951
6,19-May-2017,1,10,stim.wav,1,19,5534,5.111177108970444,0,0.8271129500992951
6,19-May-2017,1,10,stim.wav,1,20,6245,-10.472941803340392,0,0.8271129500992951
6,19-May-2017,1,10,stim.wav,1,21,7037,-6.935667487006567,0,0.8271129500992951
6,19-May-2017,1,10,stim.wav,1,22,7920,-2.858222410932539,0,0.8271129500992951
6,19-May-2017,1,10,stim.wav,1,23,8904,-4.163065368708202,0,0.8271129500992951
6,19-May-2017,1,10,stim.wav,1,24,10000,3.9937890130463076,0,0.8271129500992951
6,19-May-2017,1,11,stim.wav,0,0,100,0.48221846668659285,0,0.8899560570010314
6,19-May-2017,1,11,stim.wav,0,1,191,-8.822777228407388,0,0.8899560570010314
6,19-May-2017,1,11,stim.wav,0,2,293,-0.2843256967096597,0,0.8899560570010314
6,19-May-2017,1,11,stim.wav,0,3,406,-1.8336467528783051,0,0.8899560570010314
6,19-May-2017,1,11,stim.wav,0,4,533,2.2795414175803335,0,0.8899560570010314
6,19-May-2017,1,11,stim.wav,0,5,673,1.5990608666690698,0,0.8899560570010314
6,19-May-2017,1,11,stim.wav,0,6,830,-7.083062275468129,0,0.8899560570010314
6,19-May-2017,1,11,stim.wav,0,7,1004,10.524772581244207,0,0.8899560570010314
6,19-May-2017,1,11,stim.wav,0,8,1199,1.5084950025921462,0,0.8899560570010314
6,19-May-2017,1,11,stim.wav,0,9,1416,0.137595375819235,0,0.8899560570010314
6,19-May-2017,1,11,stim.wav,0,10,1657,-2.6862821405074584,0,0.8899560570010314
6,19-May-2017,1,11,stim.wav,0,11,1926,8.596355508196048,0,0.8899560570010314
6,19-May-2017,1,11,stim.wav,0,12,2226,-6.693868763678189,0,0.8899560570010314
6,19-May-2017,1,11,stim.wav,0,13,2560,-0.045252465088799196,0,0.8899560570010314
6,19-May-2017,1,11,stim.wav,0,14,2932,-2.56342440325761,0,0.8899560570010314
6,19-May-2017,1,11,stim.wav,0,15,3346,0.2832062847412794,0,0.8899560570010314
6,19-May-2017,1,11,stim.wav,0,16,3808,-1.7846905047282513,0,0.8899560570010314
6,19-May-2017,1,11,stim.wav,0,17,4322,-2.820119203971245,0,0.8899560570010314
6,19-May-2017,1,11,stim.wav,0,18,4895,7.929541020149963,0,0.8899560570010314
6,19-May-2017,1,11,stim.wav,0,19,5534,-9.541030295031188,0,0.8899560570010314
6,19-May-2017,1,11,stim.wav,0,20,6245,-6.456416279948167,0,0.8899560570010314
6,19-May-2017,1,11,stim.wav,0,21,7037,3.735642628137491,0,0.8899560570010314
6,19-May-2017,1,11,stim.wav,0,22,7920,1.4472525365630509,0,0.8899560570010314
6,19-May-2017,1,11,stim.wav,0,23,8904,-5.450839496034715,0,0.8899560570010314
6,19-May-2017,1,11,stim.wav,0,24,10000,2.2482764517913663,0,0.8899560570010314
6,19-May-2017,1,11,stim.wav,1,0,100,-0.2532182278895847,1,0.8899560570010314
6,19-May-2017,1,11,stim.wav,1,1,191,3.5644908358555583,1,0.8899560570010314
6,19-May-2017,1,11,stim.wav,1,2,293,9.375405737541834,1,0.8899560570010314
6,19-May-2017,1,11,stim.wav,1,3,406,0.8845567443688694,1,0.8899560570010314
6,19-May-2017,1,11,stim.wav,1,4,533,-1.2718210814483477,1,0.8899560570010314
6,19-May-2017,1,11,stim.wav,1,5,673,3.5360359540386717,1,0.8899560570010314
6,19-May-2017,1,11,stim.wav,1,6,830,-1.3428373659574988,1,0.8899560570010314
6,19-May-2017,1,11,stim.wav,1,7,1004,0.3725270056723787,1,0.8899560570010314
6,19-May-2017,1,11,stim.wav,1,8,1199,-0.7341439726307266,1,0.8899560570010314
6,19-May-2017,1,11,stim.wav,1,9,1416,10.224819598223222,1,0.8899560570010314
6,19-May-2017,1,11,stim.wav,1,10,1657,10.68616446159993,1,0.8899560570010314
6,19-May-2017,1,11,stim.wav,1,11,1926,4.068409270739643,1,0.8899560570010314
6,19-May-2017,1,11,stim.wav,1,12,2226,-4.112875915264501,1,0.8899560570010314
6,19-May-2017,1,11,stim.wav,1,13,2560,6.412048729571449,1,0.8899560570010314
6,19-May-2017,1,11,stim.wav,1,14,2932,-1.3853871488435663,1,0.8899560570010314
6,19-May-2017,1,11,stim.wav,1,15,3346,1.8485650893473418,1,0.8899560570010314
6,19-May-2017,1,11,stim.wav,1,16,3808,-1.663220573047676,1,0.8899560570010314
6,19-May-2017,1,11,stim.wav,1,17,4322,-3.605406722516631,1,0.8899560570010314
6,19-May-2017,1,11,stim.wav,1,18,4895,0.3043371392560923,1,0.8899560570010314
6,19-May-2017,1,11,stim.wav,1,19,5534,8.418494728957654,1,0.8899560570010314
6,19-May-2017,1,11,stim.wav,1,20,6245,4.184647920857712,1,0.8899560570010314
6,19-May-2017,1,11,stim.wav,1,21,7037,3.184170668253221,1,0.8899560570010314
6,19-May-2017,1,11,stim.wav,1,22,7920,-1.0270447979636055,1,0.8899560570010314
6,19-May-2017,1,11,stim.wav,1,23,8904,7.866317122741407,1,0.8899560570010314
6,19-May-2017,1,11,stim.wav,1,24,10000,3.9999336926001448,1,0.8899560570010314
6,19-May-2017,1,12,stim.wav,0,0,100,-1.3132908728636723,0,0.9394544499769937
6,19-May-2017,1,12,stim.wav,0,1,191,-8.398466310394264,0,0.9394544499769937
6,19-May-2017,1,12,stim.wav,0,2,293,3.9845854184025686,0,0.9394544499769937
6,19-May-2017,1,12,stim.wav,0,3,406,1.325654951052322,0,0.9394544499769937
6,19-May-2017,1,12,stim.wav,0,4,533,-1.0237428570159361,0,0.9394544499769937
6,19-May-2017,1,12,stim.wav,0,5,673,0.34987557658914376,0,0.9394544499769937
6,19-May-2017,1,12,stim.wav,0,6,830,-5.706667160179889,0,0.9394544499769937
6,19-May-2017,1,12,stim.wav,0,7,1004,-8.790541527649973,0,0.9394544499769937
6,19-May-2017,1,12,stim.wav,0,8,1199,-1.7096513205789412,0,0.9394544499769937
6,19-May-2017,1,12,stim.wav,0,9,1416,5.1719117923914935,0,0.9394544499769937
6,19-May-2017,1,12,stim.wav,0,10,1657,4.177190321137137,0,0.9394544499769937
6,19-May-2017,1,12,stim.wav,0,11,1926,-2.5818042613793284,0,0.9394544499769937
6,19-May-2017,1,12,stim.wav,0,12,2226,6.226243046740447,0,0.9394544499769937
6,19-May-2017,1,12,stim.wav,0,13,2560,7.9821850222355,0,0.9394544499769937
6,19-May-2017,1,12,stim.wav,0,14,2932,-1.5488297189974216,0,0.9394544499769937
6,19-May-2017,1,12,stim.wav,0,15,3346,7.087267633454118,0,0.9394544499769937
6,19-May-2017,1,12,stim.wav,0,16,3808,-1.8199745784957042,0,0.9394544499769937
6,19-May-2017,1,12,stim.wav,0,17,4322,0.3160872836418918,0,0.9394544499769937
6,19-May-2017,1,12,stim.wav,0,18,4895,-4.528912706018941,0,0.9394544499769937
6,19-May-2017,1,12,stim.wav,0,19,5534,3.5929619843111094,0,0.9394544499769937
6,19-May-2017,1,12,stim.wav,0,20,6245,10.277518586577543,0,0.9394544499769937
6,19-May-2017,1,12,stim.wav,0,21,7037,-2.0348081498006727,0,0.9394544499769937
6,19-May-2017,1,12,stim.wav,0,22,7920,0.16022483769804313,0,0.9394544499769937
6,19-May-2017,1,12,stim.wav,0,23,8904,-2.814693862277335,0,0.9394544499769937
6,19-May-2017,1,12,stim.wav,0,24,10000,-3.693577526770347,0,0.9394544499769937
6,19-May-2017,1,12,stim.wav,1,0,100,3.6284253620368663,1,0.9394544499769937
6,19-May-2017,1,12,stim.wav,1,1,191,-2.3132154282750665,1,0.9394544499769937
6,19-May-2017,1,12,stim.wav,1,2,293,0.650555471377266,1,0.9394544499769937
6,19-May-2017,1,12,stim.wav,1,3,406,-0.0385426356324767,1,0.9394544499769937
6,19-May-2017,1,12,stim.wav,1,4,533,-4.445466053908166,1,0.9394544499769937
6,19-May-2017,1,12,stim.wav,1,5,673,1.6128078221933682,1,0.9394544499769937
6,19-May-2017,1,12,stim.wav,1,6,830,-4.428327596513615,1,0.9394544499769937
6,19-May-2017,1,12,stim.wav,1,7,1004,-5.2852615701838,1,0.9394544499769937
6,19-May-2017,1,12,stim.wav,1,8,1199,4.948291905696351,1,0.9394544499769937
6,19-May-2017,1,12,stim.wav,1,9,1416,-0.6755720456100065,1,0.9394544499769937
6,19-May-2017,1,12,stim.wav,1,10,1657,-1.1874660206823466,1,0.9394544499769937
6,19-May-2017,1,12,stim.wav,1,11,1926,4.032055716188025,1,0.9394544499769937
6,19-May-2017,1,12,stim.wav,1,12,2226,-8.991049051583085,1,0.9394544499769937
6,19-May-2017,1,12,stim.wav,1,13,2560,2.087641529161224,1,0.9394544499769937
6,19-May-2017,1,12,stim.wav,1,14,2932,-0.25033202844780533,1,0.9394544499769937
6,19-May-2017,1,12,stim.wav,1,15,3346,-10.629462091971876,1,0.9394544499769937
6,19-May-2017,1,12,stim.wav,1,16,3808,-1.7027943166785282,1,0.9394544499769937
6,19-May-2017,1,12,stim.wav,1,17,4322,-1.40162837586456,1,0.9394544499769937
6,19-May-2017,1,12,stim.wav,1,18,4895,-1.5463426900255486,1,0.9394544499769937
6,19-May-2017,1,12,stim.wav,1,19,5534,0.01539290011391429,1,0.9394544499769937
6,19-May-2017,1,12,stim.wav,1,20,6245,3.5358273355670002,1,0.9394544499769937
6,19-May-2017,1,12,stim.wav,1,21,7037,4.448585621735577,1,0.9394544499769937
6,19-May-2017,1,12,stim.wav,1,22,7920,-4.697017376618419,1,0.9394544499769937
6,19-May-2017,1,12,stim.wav,1,23,8904,-6.470068214195981,1,0.9394544499769937
6,19-May-2017,1,12,stim.wav,1,24,10000,-1.5963948083926751,1,0.9394544499769937
6,19-May-2017,1,13,stim.wav,0,0,100,1.4743588823933982,0,1.612439169992183
6,19-May-2017,1,13,stim.wav,0,1,191,-1.854724004726591,0,1.612439169992183
6,19-May-2017,1,13,stim.wav,0,2,293,-0.7601728785239408,0,1.612439169992183
6,19-May-2017,1,13,stim.wav,0,3,406,1.1919986653278811,0,1.612439169992183
6,19-May-2017,1,13,stim.wav,0,4,533,4.7101552055013,0,1.612439169992183
6,19-May-2017,1,13,stim.wav,0,5,673,3.5409605085167333,0,1.612439169992183
6,19-May-2017,1,13,stim.wav,0,6,830,-0.7537233332819577,0,1.612439169992183
6,19-May-2017,1,13,stim.wav,0,7,1004,-2.405684318064145,0,1.612439169992183
6,19-May-2017,1,13,stim.wav,0,8,1199,4.724086254731415,0,1.612439169992183
6,19-May-2017,1,13,stim.wav,0,9,1416,0.5016479827090146,0,1.612439169992183
6,19-May-2017,1,13,stim.wav,0,10,1657,5.916750721106406,0,1.612439169992183
6,19-May-2017,1,13,stim.wav,0,11,1926,-1.812407207841701,0,1.612439169992183
6,19-May-2017,1,13,stim.wav,0,12,2226,1.6121657367714735,0,1.612439169992183
6,19-May-2017,1,13,stim.wav,0,13,2560,-3.92850386334213,0,1.612439169992183
6,19-May-2017,1,13,stim.wav,0,14,2932,7.853063188162908,0,1.612439169992183
6,19-May-2017,1,13,stim.wav,0,15,3346,11.039524962806732,0,1.612439169992183
6,19-May-2017,1,13,stim.wav,0,16,3808,1.907005380634113,0,1.612439169992183
6,19-May-2017,1,13,stim.wav,0,17,4322,1.6979015139896672,0,1.612439169992183
6,19-May-2017,1,13,stim.wav,0,18,4895,-7.023648573792688,0,1.612439169992183
6,19-May-2017,1,13,stim.wav,0,19,5534,-1.2165059784398589,0,1.612439169992183
6,19-May-2017,1,13,stim.wav,0,20,6245,0.948563761533906,0,1.612439169992183
6,19-May-2017,1,13,stim.wav,0,21,7037,-4.683879528528586,0,1.612439169992183
6,19-May-2017,1,13,stim.wav,0,22,7920,-6.639921484645235,0,1.612439169992183
6,19-May-2017,1,13,stim.wav,0,23,8904,-5.792823146261731,0,1.612439169992183
6,19-May-2017,1,13,stim.wav,0,24,10000,10.560198784441454,0,1.612439169992183
6,19-May-2017,1,13,stim.wav,1,0,100,5.211865634822593,1,1.612439169992183
6,19-May-2017,1,13,stim.wav,1,1,191,-3.811372462544291,1,1.612439169992183
6,19-May-2017,1,13,stim.wav,1,2,293,-0.002856076046814688,1,1.612439169992183
6,19-May-2017,1,13,stim.wav,1,3,406,-1.4049567018582068,1,1.612439169992183
6,19-May-2017,1,13,stim.wav,1,4,533,-5.209840059468547,1,1.612439169992183
6,19-May-2017,1,13,stim.wav,1,5,673,1.3715566984135754,1,1.612439169992183
6,19-May-2017,1,13,stim.wav,1,6,830,0.5302768504698852,1,1.612439169992183
6,19-May-2017,1,13,stim.wav,1,7,1004,2.6339208479247063,1,1.612439169992183
6,19-May-2017,1,13,stim.wav,1,8,1199,-8.924445082809305,1,1.612439169992183
6,19-May-2017,1,13,stim.wav,1,9,1416,-3.3182187357893183,1,1.612439169992183
6,19-May-2017,1,13,stim.wav,1,10,1657,6.936679288514094,1,1.612439169992183
6,19-May-2017,1,13,stim.wav,1,11,1926,6.1265768724723735,1,1.612439169992183
6,19-May-2017,1,13,stim.wav,1,12,2226,-4.101966486530215,1,1.612439169992183
6,19-May-2017,1,13,stim.wav,1,13,2560,2.3346202423453217,1,1.612439169992183
6,19-May-2017,1,13,stim.wav,1,14,2932,-0.1042437504539222,1,1.612439169992183
6,19-May-2017,1,13,stim.wav,1,15,3346,-0.41143854915952704,1,1.612439169992183
6,19-May-2017,1,13,stim.wav,1,16,3808,-2.111127336102741,1,1.612439169992183
6,19-May-2017,1,13,stim.wav,1,17,4322,9.283157784786207,1,1.612439169992183
6,19-May-2017,1,13,stim.wav,1,18,4895,-2.499467600232133,1,1.612439169992183
6,19-May-2017,1,13,stim.wav,1,19,5534,-2.3544000907078324,1,1.612439169992183
6,19-May-2017,1,13,stim.wav,1,20,6245,-3.333375879170042,1,1.612439169992183
6,19-May-2017,1,13,stim.wav,1,21,7037,4.444816677300193,1,1.612439169992183
6,19-May-2017,1,13,stim.wav,1,22,7920,3.9763899020791342,1,1.612439169992183
6,19-May-2017,1,13,stim.wav,1,23,8904,-4.092618526406123,1,1.612439169992183
6,19-May-2017,1,13,stim.wav,1,24,10000,-1.2283702193707764,1,1.612439169992183
6,19-May-2017,1,14,stim.wav,0,0,100,-0.8016213942440188,0,0.785451087114558
6,19-May-2017,1,14,stim.wav,0,1,191,-2.2874866099730955,0,0.785451087114558
6,19-May-2017,1,14,stim.wav,0,2,293,-3.9182589780610018,0,0.785451087114558
6,19-May-2017,1,14,stim.wav,0,3,406,-0.9317818342072768,0,0.785451087114558
6,19-May-2017,1,14,stim.wav,0,4,533,8.613220945335367,0,0.785451087114558
6,19-May-2017,1,14,stim.wav,0,5,673,0.8080664228862288,0,0.785451087114558
6,19-May-2017,1,14,stim.wav,0,6,830,2.5091819690541617,0,0.785451087114558
6,19-May-2017,1,14,stim.wav,0,7,1004,3.290962443569889,0,0.785451087114558
6,19-May-2017,1,14,stim.wav,0,8,1199,-5.479553821828307,0,0.785451087114558
6,19-May-2017,1,14,stim.wav,0,9,1416,-3.848994658965238,0,0.785451087114558
6,19-May-2017,1,14,stim.wav,0,10,1657,5.654507171811839,0,0.785451087114558
6,19-May-2017,1,14,stim.wav,0,11,1926,0.881265687840245,0,0.785451087114558
6,19-May-2017,1,14,stim.wav,0,12,2226,-1.2490762903103385,0,0.785451087114558
6,19-May-2017,1,14,stim.wav,0,13,2560,5.162238905329167,0,0.785451087114558
6,19-May-2017,1,14,stim.wav,0,14,2932,5.267999556987194,0,0.785451087114558
6,19-May-2017,1,14,stim.wav,0,15,3346,5.184085948433934,0,0.785451087114558
6,19-May-2017,1,14,stim.wav,0,16,3808,-5.526677821984274,0,0.785451087114558
6,19-May-2017,1,14,stim.wav,0,17,4322,-1.3634609519696037,0,0.785451087114558
6,19-May-2017,1,14,stim.wav,0,18,4895,-7.729652262098535,0,0.785451087114558
6,19-May-2017,1,14,stim.wav,0,19,5534,2.786524510308915,0,0.785451087114558
6,19-May-2017,1,14,stim.wav,0,20,6245,-3.3615490816909515,0,0.785451087114558
6,19-May-2017,1,14,stim.wav,0,21,7037,4.464776184621182,0,0.785451087114558
6,19-May-2017,1,14,stim.wav,0,22,7920,-5.6698802798957315,0,0.785451087114558
6,19-May-2017,1,14,stim.wav,0,23,8904,-0.5821151864054415,0,0.785451087114558
6,19-May-2017,1,14,stim.wav,0,24,10000,9.42633266246837,0,0.785451087114558
6,19-May-2017,1,14,stim.wav,1,0,100,-1.9650425288131081,1,0.785451087114558
6,19-May-2017,1,14,stim.wav,1,1,191,-4.153761065858372,1,0.785451087114558
6,19-May-2017,1,14,stim.wav,1,2,293,6.921039775267667,1,0.785451087114558
6,19-May-2017,1,14,stim.wav,1,3,406,3.817321731247235,1,0.785451087114558
6,19-May-2017,1,14,stim.wav,1,4,533,5.446129000572792,1,0.785451087114558
6,19-May-2017,1,14,stim.wav,1,5,673,-4.660457348514043,1,0.785451087114558
6,19-May-2017,1,14,stim.wav,1,6,830,-4.00003860628272,1,0.785451087114558
6,19-May-2017,1,14,stim.wav,1,7,1004,-2.158782858187092,1,0.785451087114558
6,19-May-2017,1,14,stim.wav,1,8,1199,0.20745549389739454,1,0.785451087114558
6,19-May-2017,1,14,stim.wav,1,9,1416,-6.187056961296267,1,0.785451087114558
6,19-May-2017,1,14,stim.wav,1,10,1657,3.1839357294951447,1,0.785451087114558
6,19-May-2017,1,14,stim.wav,1,11,1926,-1.2624330883142056,1,0.785451087114558
6,19-May-2017,1,14,stim.wav,1,12,2226,11.277968055265575,1,0.785451087114558
6,19-May-2017,1,14,stim.wav,1,13,2560,2.727923157706206,1,0.785451087114558
6,19-May-2017,1,14,stim.wav,1,14,2932,-2.046168267897329,1,0.785451087114558
6,19-May-2017,1,14,stim.wav,1,15,3346,-3.9923618482814716,1,0.785451087114558
6,19-May-2017,1,14,stim.wav,1,16,3808,7.84624875546395,1,0.785451087114558
6,19-May-2017,1,14,stim.wav,1,17,4322,-0.6293452251189978,1,0.785451087114558
6,19-May-2017,1,14,stim.wav,1,18,4895,-7.565800935954043,1,0.785451087114558
6,19-May-2017,1,14,stim.wav,1,19,5534,4.419745043595128,1,0.785451087114558
6,19-May-2017,1,14,stim.wav,1,20,6245,4.47276419131743,1,0.785451087114558
6,19-May-2017,1,14,stim.wav,1,21,7037,0.7911734845943565,1,0.785451087114558
6,19-May-2017,1,14,stim.wav,1,22,7920,1.8172248356546026,1,0.785451087114558
6,19-May-2017,1,14,stim.wav,1,23,8904,1.0279178983559425,1,0.785451087114558
6,19-May-2017,1,14,stim.wav,1,24,10000,-9.076778813515535,1,0.785451087114558
6,19-May-2017,1,15,stim.wav,0,0,100,2.448654029096875,1,1.0563907215101749
6,19-May-2017,1,15,stim.wav,0,1,191,3.4327619818501063,1,1.0563907215101749
6,19-May-2017,1,15,stim.wav,0,2,293,-0.8288379799437141,1,1.0563907215101749
6,19-May-2017,1,15,stim.wav,0,3,406,-1.6243091766979472,1,1.0563907215101749
6,19-May-2017,1,15,stim.wav,0,4,533,0.10375335399473411,1,1.0563907215101749
6,19-May-2017,1,15,stim.wav,0,5,673,-4.677463550060123,1,1.0563907215101749
6,19-May-2017,1,15,stim.wav,0,6,830,1.7492478742653061,1,1.0563907215101749
6,19-May-2017,1,15,stim.wav,0,7,1004,6.532514151559359,1,1.0563907215101749
6,19-May-2017,1,15,stim.wav,0,8,1199,-2.662270565806357,1,1.0563907215101749
6,19-May-2017,1,15,stim.wav,0,9,1416,-1.453098235667729,1,1.0563907215101749
6,19-May-2017,1,15,stim.wav,0,10,1657,8.57253072962904,1,1.0563907215101749
6,19-May-2017,1,15,stim.wav,0,11,1926,4.569636833531206,1,1.0563907215101749
6,19-May-2017,1,15,stim.wav,0,12,2226,-10.390152440583517,1,1.0563907215101749
6,19-May-2017,1,15,stim.wav,0,13,2560,-3.9780095279783727,1,1.0563907215101749
6,19-May-2017,1,15,stim.wav,0,14,2932,-9.69033187702583,1,1.0563907215101749
6,19-May-2017,1,15,stim.wav,0,15,3346,7.963507083033895,1,1.0563907215101749
6,19-May-2017,1,15,stim.wav,0,16,3808,-4.814026711734659,1,1.0563907215101749
6,19-May-2017,1,15,stim.wav,0,17,4322,-3.6696632449715363,1,1.0563907215101749
6,19-May-2017,1,15,stim.wav,0,18,4895,-6.6668705930730665,1,1.0563907215101749
6,19-May-2017,1,15,stim.wav,0,19,5534,10.052019139113016,1,1.0563907215101749
6,19-May-2017,1,15,stim.wav,0,20,6245,-2.430910217256816,1,1.0563907215101749
6,19-May-2017,1,15,stim.wav,0,21,7037,6.024609215028697,1,1.0563907215101749
6,19-May-2017,1,15,stim.wav,0,22,7920,-3.8065806759840837,1,1.0563907215101749
6,19-May-2017,1,15,stim.wav,0,23,8904,1.4589095635394744,1,1.0563907215101749
6,19-May-2017,1,15,stim.wav,0,24,10000,-11.417593562204768,1,1.0563907215101749
6,19-May-2017,1,15,stim.wav,1,0,100,-0.5730475915035791,0,1.0563907215101749
6,19-May-2017,1,15,stim.wav,1,1,191,-2.0025014641283754,0,1.0563907215101749
6,19-May-2017,1,15,stim.wav,1,2,293,0.24559666046046674,0,1.0563907215101749
6,19-May-2017,1,15,stim.wav,1,3,406,-1.4541306915210477,0,1.0563907215101749
6,19-May-2017,1,15,stim.wav,1,4,533,-2.429432657662333,0,1.0563907215101749
6,19-May-2017,1,15,stim.wav,1,5,673,0.8614260480478607,0,1.0563907215101749
6,19-May-2017,1,15,stim.wav,1,6,830,0.7835291732815088,0,1.0563907215101749
6,19-May-2017,1,15,stim.wav,1,7,1004,-4.5468884135347905,0,1.0563907215101749
6,19-May-2017,1,15,stim.wav,1,8,1199,3.2736967648491806,0,1.0563907215101749
6,19-May-2017,1,15,stim.wav,1,9,1416,-6.013508370027373,0,1.0563907215101749
6,19-May-2017,1,15,stim.wav,1,10,1657,1.0230185905266955,0,1.0563907215101749
6,19-May-2017,1,15,stim.wav,1,11,1926,-1.042269488085173,0,1.0563907215101749
6,19-May-2017,1,15,stim.wav,1,12,2226,0.9189002769796464,0,1.0563907215101749
6,19-May-2017,1,15,stim.wav,1,13,2560,8.890548498264836,0,1.0563907215101749
6,19-May-2017,1,15,stim.wav,1,14,2932,7.9880687663504535,0,1.0563907215101749
6,19-May-2017,1,15,stim.wav,1,15,3346,-9.061018532812406,0,1.0563907215101749
6,19-May-2017,1,15,stim.wav,1,16,3808,-9.283445753817464,0,1.0563907215101749
6,19-May-2017,1,15,stim.wav,1,17,4322,4.9011333256525536,0,1.0563907215101749
6,19-May-2017,1,15,stim.wav,1,18,4895,-3.5907768382639498,0,1.0563907215101749
6,19-May-2017,1,15,stim.wav,1,19,5534,-0.682416157811167,0,1.0563907215101749
6,19-May-2017,1,15,stim.wav,1,20,6245,4.773070955924789,0,1.0563907215101749
6,19-May-2017,1,15,stim.wav,1,21,7037,6.682814974695372,0,1.0563907215101749
6,19-May-2017,1,15,stim.wav,1,22,7920,4.697318821780594,0,1.0563907215101749
6,19-May-2017,1,15,stim.wav,1,23,8904,-0.23605994786438567,0,1.0563907215101749
6,19-May-2017,1,15,stim.wav,1,24,10000,-0.13840697222626697,0,1.0563907215101749
6,19-May-2017,1,16,stim.wav,0,0,100,-2.5736317212023807,0,1.38115154946538
6,19-May-2017,1,16,stim.wav,0,1,191,-3.089601344173655,0,1.38115154946538
6,19-May-2017,1,16,stim.wav,0,2,293,-1.3824974193776765,0,1.38115154946538
6,19-May-2017,1,16,stim.wav,0,3,406,-3.1802541463752876,0,1.38115154946538
6,19-May-2017,1,16,stim.wav,0,4,533,9.478842954115846,0,1.38115154946538
6,19-May-2017,1,16,stim.wav,0,5,673,-2.937263595593543,0,1.38115154946538
6,19-May-2017,1,16,stim.wav,0,6,830,-1.5777751116302583,0,1.38115154946538
6,19-May-2017,1,16,stim.wav,0,7,1004,3.195052752847497,0,1.38115154946538
6,19-May-2017,1,16,stim.wav,0,8,1199,3.9279788417991988,0,1.38115154946538
6,19-May-2017,1,16,stim.wav,0,9,1416,2.6914885292895114,0,1.38115154946538
6,19-May-2017,1,16,stim.wav,0,10,1657,-2.8762693243277,0,1.38115154946538
6,19-May-2017,1,16,stim.wav,0,11,1926,1.9009711239886355,0,1.38115154946538
6,19-May-2017,1,16,stim.wav,0,12,2226,-4.5816920867306195,0,1.38115154946538
6,19-May-2017,1,16,stim.wav,0,13,2560,-2.6487840222231798,0,1.38115154946538
6,19-May-2017,1,16,stim.wav,0,14,2932,-0.4734467686305393,0,1.38115154946538
6,19-May-2017,1,16,stim.wav,0,15,3346,-1.1850351353883437,0,1.38115154946538
6,19-May-2017,1,16,stim.wav,0,16,3808,-1.0764200068518646,0,1.38115154946538
6,19-May-2017,1,16,stim.wav,0,17,4322,7.650187011627656,0,1.38115154946538
6,19-May-2017,1,16,stim.wav,0,18,4895,1.5616130072520418,0,1.38115154946538
6,19-May-2017,1,16,stim.wav,0,19,5534,-3.7108293813483177,0,1.38115154946538
6,19-May-2017,1,16,stim.wav,0,20,6245,1.99340498671198,0,1.38115154946538
6,19-May-2017,1,16,stim.wav,0,21,7037,-5.88903699580264,0,1.38115154946538
6,19-May-2017,1,16,stim.wav,0,22,7920,2.8001929020885967,0,1.38115154946538
6,19-May-2017,1,16,stim.wav,0,23,8904,4.106622394483649,0,1.38115154946538
6,19-May-2017,1,16,stim.wav,0,24,10000,-11.2075153326594,0,1.38115154946538
6,19-May-2017,1,16,stim.wav,1,0,100,-0.5623096956650075,1,1.38115154946538
6,19-May-2017,1,16,stim.wav,1,1,191,-10.497001821951017,1,1.38115154946538
6,19-May-2017,1,16,stim.wav,1,2,293,-6.115416311787572,1,1.38115154946538
6,19-May-2017,1,16,stim.wav,1,3,406,-5.802577789386476,1,1.38115154946538
6,19-May-2017,1,16,stim.wav,1,4,533,-1.0692298642164673,1,1.38115154946538
6,19-May-2017,1,16,stim.wav,1,5,673,0.8017177353325056,1,1.38115154946538
6,19-May-2017,1,16,stim.wav,1,6,830,-5.6000591893016995,1,1.38115154946538
6,19-May-2017,1,16,stim.wav,1,7,1004,5.4562254871374085,1,1.38115154946538
6,19-May-2017,1,16,stim.wav,1,8,1199,4.076372157144142,1,1.38115154946538
6,19-May-2017,1,16,stim.wav,1,9,1416,-4.319738621464307,1,1.38115154946538
6,19-May-2017,1,16,stim.wav,1,10,1657,0.23238781529154567,1,1.38115154946538
6,19-May-2017,1,16,stim.wav,1,11,1926,1.7617116591343265,1,1.38115154946538
6,19-May-2017,1,16,stim.wav,1,12,2226,0.754397434324968,1,1.38115154946538
6,19-May-2017,1,16,stim.wav,1,13,2560,-1.7355431972728614,1,1.38115154946538
6,19-May-2017,1,16,stim.wav,1,14,2932,-3.611364252072323,1,1.38115154946538
6,19-May-2017,1,16,stim.wav,1,15,3346,-8.468831915678777,1,1.38115154946538
6,19-May-2017,1,16,stim.wav,1,16,3808,4.391997295049562,1,1.38115154946538
6,19-May-2017,1,16,stim.wav,1,17,4322,7.062445046313225,1,1.38115154946538
6,19-May-2017,1,16,stim.wav,1,18,4895,-5.1461330510565215,1,1.38115154946538
6,19-May-2017,1,16,stim.wav,1,19,5534,2.3134728927700103,1,1.38115154946538
6,19-May-2017,1,16,stim.wav,1,20,6245,3.0956722985185974,1,1.38115154946538
6,19-May-2017,1,16,stim.wav,1,21,7037,-1.9413382277595412,1,1.38115154946538
6,19-May-2017,1,16,stim.wav,1,22,7920,0.2933350409296515,1,1.38115154946538
6,19-May-2017,1,16,stim.wav,1,23,8904,3.5764813530958333,1,1.38115154946538
6,19-May-2017,1,16,stim.wav,1,24,10000,6.0084640823537026,1,1.38115154946538
6,19-May-2017,1,17,stim.wav,0,0,100,3.516570567002264,1,3.3335278753243553
6,19-May-2017,1,17,stim.wav,0,1,191,-2.023765508813207,1,3.3335278753243553
6,19-May-2017,1,17,stim.wav,0,2,293,3.7834826470745764,1,3.3335278753243553
6,19-May-2017,1,17,stim.wav,0,3,406,-1.5051909147408413,1,3.3335278753243553
6,19-May-2017,1,17,stim.wav,0,4,533,-4.143853570741667,1,3.3335278753243553
6,19-May-2017,1,17,stim.wav,0,5,673,-3.961251498518089,1,3.3335278753243553
6,19-May-2017,1,17,stim.wav,0,6,830,-4.850924300872787,1,3.3335278753243553
6,19-May-2017,1,17,stim.wav,0,7,1004,4.40895564012955,1,3.3335278753243553
6,19-May-2017,1,17,stim.wav,0,8,1199,3.158134739874925,1,3.3335278753243553
6,19-May-2017,1,17,stim.wav,0,9,1416,4.292799192362018,1,3.3335278753243553
6,19-May-2017,1,17,stim.wav,0,10,1657,-1.816443051426785,1,3.3335278753243553
6,19-May-2017,1,17,stim.wav,0,11,1926,-5.437440203836119,1,3.3335278753243553
6,19-May-2017,1,17,stim.wav,0,12,2226,-2.404304635685651,1,3.3335278753243553
6,19-May-2017,1,17,stim.wav,0,13,2560,5.963987318791216,1,3.3335278753243553
6,19-May-2017,1,17,stim.wav,0,14,2932,-0.6266199230030349,1,3.3335278753243553
6,19-May-2017,1,17,stim.wav,0,15,3346,0.4334198479407822,1,3.3335278753243553
6,19-May-2017,1,17,stim.wav,0,16,3808,-3.943403121141001,1,3.3335278753243553
6,19-May-2017,1,17,stim.wav,0,17,4322,-4.43043045728203,1,3.3335278753243553
6,19-May-2017,1,17,stim.wav,0,18,4895,-0.2336415755182741,1,3.3335278753243553
6,19-May-2017,1,17,stim.wav,0,19,5534,-5.208054879396656,1,3.3335278753243553
6,19-May-2017,1,17,stim.wav,0,20,6245,-3.9376029996721162,1,3.3335278753243553
6,19-May-2017,1,17,stim.wav,0,21,7037,5.412581166995537,1,3.3335278753243553
6,19-May-2017,1,17,stim.wav,0,22,7920,-1.7947948429924263,1,3.3335278753243553
6,19-May-2017,1,17,stim.wav,0,23,8904,3.381619583400651,1,3.3335278753243553
6,19-May-2017,1,17,stim.wav,0,24,10000,-8.517410543126893,1,3.3335278753243553
6,19-May-2017,1,17,stim.wav,1,0,100,3.1848460012965054,0,3.3335278753243553
6,19-May-2017,1,17,stim.wav,1,1,191,-0.829081957312088,0,3.3335278753243553
6,19-May-2017,1,17,stim.wav,1,2,293,-3.591070854177417,0,3.3335278753243553
6,19-May-2017,1,17,stim.wav,1,3,406,3.996260480433408,0,3.3335278753243553
6,19-May-2017,1,17,stim.wav,1,4,533,0.7139864912868537,0,3.3335278753243553
6,19-May-2017,1,17,stim.wav,1,5,673,5.9114464216489315,0,3.3335278753243553
6,19-May-2017,1,17,stim.wav,1,6,830,-2.289325886271411,0,3.3335278753243553
6,19-May-2017,1,17,stim.wav,1,7,1004,9.5413305071993,0,3.3335278753243553
6,19-May-2017,1,17,stim.wav,1,8,1199,-1.5012345394638495,0,3.3335278753243553
6,19-May-2017,1,17,stim.wav,1,9,1416,7.667554616292155,0,3.3335278753243553
6,19-May-2017,1,17,stim.wav,1,10,1657,2.728143234973664,0,3.3335278753243553
6,19-May-2017,1,17,stim.wav,1,11,1926,0.5333764446868643,0,3.3335278753243553
6,19-May-2017,1,17,stim.wav,1,12,2226,-1.369251153191622,0,3.3335278753243553
6,19-May-2017,1,17,stim.wav,1,13,2560,-1.2208853810406386,0,3.3335278753243553
6,19-May-2017,1,17,stim.wav,1,14,2932,4.288108750036463,0,3.3335278753243553
6,19-May-2017,1,17,stim.wav,1,15,3346,-0.3363484798475586,0,3.3335278753243553
6,19-May-2017,1,17,stim.wav,1,16,3808,-1.5146198370981172,0,3.3335278753243553
6,19-May-2017,1,17,stim.wav,1,17,4322,-7.28687846757015,0,3.3335278753243553
6,19-May-2017,1,17,stim.wav,1,18,4895,0.2692690961048053,0,3.3335278753243553
6,19-May-2017,1,17,stim.wav,1,19,5534,0.8357449480175262,0,3.3335278753243553
6,19-May-2017,1,17,stim.wav,1,20,6245,-6.281560418727642,0,3.3335278753243553
6,19-May-2017,1,17,stim.wav,1,21,7037,4.166877417145265,0,3.3335278753243553
6,19-May-2017,1,17,stim.wav,1,22,7920,-7.0485232707842975,0,3.3335278753243553
6,19-May-2017,1,17,stim.wav,1,23,8904,-3.6406729456866915,0,3.3335278753243553
6,19-May-2017,1,17,stim.wav,1,24,10000,-2.747056985938352,0,3.3335278753243553
6,19-May-2017,1,18,stim.wav,0,0,100,0.1714709406430216,1,0.7826331931285397
6,19-May-2017,1,18,stim.wav,0,1,191,1.7832898765782903,1,0.7826331931285397
6,19-May-2017,1,18,stim.wav,0,2,293,-0.5334794489132381,1,0.7826331931285397
6,19-May-2017,1,18,stim.wav,0,3,406,0.7507058413290469,1,0.7826331931285397
6,19-May-2017,1,18,stim.wav,0,4,533,1.1589754858227437,1,0.7826331931285397
6,19-May-2017,1,18,stim.wav,0,5,673,-0.2543805079209612,1,0.7826331931285397
6,19-May-2017,1,18,stim.wav,0,6,830,0.4037247153699707,1,0.7826331931285397
6,19-May-2017,1,18,stim.wav,0,7,1004,4.9555036311633325,1,0.7826331931285397
6,19-May-2017,1,18,stim.wav,0,8,1199,0.020773669287561775,1,0.7826331931285397
6,19-May-2017,1,18,stim.wav,0,9,1416,9.189619396804583,1,0.7826331931285397
6,19-May-2017,1,18,stim.wav,0,10,1657,8.25284994823839,1,0.7826331931285397
6,19-May-2017,1,18,stim.wav,0,11,1926,-0.6169048386604544,1,0.7826331931285397
6,19-May-2017,1,18,stim.wav,0,12,2226,3.5729513610941495,1,0.7826331931285397
6,19-May-2017,1,18,stim.wav,0,13,2560,-5.690938728699239,1,0.7826331931285397
6,19-May-2017,1,18,stim.wav,0,14,2932,0.2821573827233153,1,0.7826331931285397
6,19-May-2017,1,18,stim.wav,0,15,3346,2.831710817800781,1,0.7826331931285397
6,19-May-2017,1,18,stim.wav,0,16,3808,-9.258120425396198,1,0.7826331931285397
6,19-May-2017,1,18,stim.wav,0,17,4322,-1.4240581305021818,1,0.7826331931285397
6,19-May-2017,1,18,stim.wav,0,18,4895,-3.4059850692603613,1,0.7826331931285397
6,19-May-2017,1,18,stim.wav,0,19,5534,8.182246203262968,1,0.7826331931285397
6,19-May-2017,1,18,stim.wav,0,20,6245,-1.9018821473641006,1,0.7826331931285397
6,19-May-2017,1,18,stim.wav,0,21,7037,-3.442959552013386,1,0.7826331931285397
6,19-May-2017,1,18,stim.wav,0,22,7920,1.8291013563066678,1,0.7826331931285397
6,19-May-2017,1,18,stim.wav,0,23,8904,-6.174492704216182,1,0.7826331931285397
6,19-May-2017,1,18,stim.wav,0,24,10000,8.40166285112248,1,0.7826331931285397
6,19-May-2017,1,18,stim.wav,1,0,100,-3.092742483393698,0,0.7826331931285397
6,19-May-2017,1,18,stim.wav,1,1,191,2.6775930156992906,0,0.7826331931285397
6,19-May-2017,1,18,stim.wav,1,2,293,0.9204521814583483,0,0.7826331931285397
6,19-May-2017,1,18,stim.wav,1,3,406,1.0977751814964976,0,0.7826331931285397
6,19-May-2017,1,18,stim.wav,1,4,533,7.110856091340053,0,0.7826331931285397
6,19-May-2017,1,18,stim.wav,1,5,673,-1.5323384258204806,0,0.7826331931285397
6,19-May-2017,1,18,stim.wav,1,6,830,1.2984403082622453,0,0.7826331931285397
6,19-May-2017,1,18,stim.wav,1,7,1004,5.831095279000971,0,0.7826331931285397
6,19-May-2017,1,18,stim.wav,1,8,1199,2.333133749655902,0,0.7826331931285397
6,19-May-2017,1,18,stim.wav,1,9,1416,0.7348814378776304,0,0.7826331931285397
6,19-May-2017,1,18,stim.wav,1,10,1657,-2.6178471902596296,0,0.7826331931285397
6,19-May-2017,1,18,stim.wav,1,11,1926,-8.107462507558814,0,0.7826331931285397
6,19-May-2017,1,18,stim.wav,1,12,2226,3.7244867059122058,0,0.7826331931285397
6,19-May-2017,1,18,stim.wav,1,13,2560,-4.1642829247246915,0,0.7826331931285397
6,19-May-2017,1,18,stim.wav,1,14,2932,4.040063862488099,0,0.7826331931285397
6,19-May-2017,1,18,stim.wav,1,15,3346,2.31315300803495,0,0.7826331931285397
6,19-May-2017,1,18,stim.wav,1,16,3808,5.019305220701692,0,0.7826331931285397
6,19-May-2017,1,18,stim.wav,1,17,4322,6.634602483750963,0,0.7826331931285397
6,19-May-2017,1,18,stim.wav,1,18,4895,-4.042545658584044,0,0.7826331931285397
6,19-May-2017,1,18,stim.wav,1,19,5534,6.106914703456395,0,0.7826331931285397
6,19-May-2017,1,18,stim.wav,1,20,6245,-5.065999367518996,0,0.7826331931285397
6,19-May-2017,1,18,stim.wav,1,21,7037,-7.611362478406978,0,0.7826331931285397
6,19-May-2017,1,18,stim.wav,1,22,7920,0.7170938416193859,0,0.7826331931285397
6,19-May-2017,1,18,stim.wav,1,23,8904,-0.4373366740994231,0,0.7826331931285397
6,19-May-2017,1,18,stim.wav,1,24,10000,4.79167374903617,0,0.7826331931285397
6,19-May-2017,1,19,stim.wav,0,0,100,7.722534371248543,1,0.8754156966650188
6,19-May-2017,1,19,stim.wav,0,1,191,0.18251031060949002,1,0.8754156966650188
6,19-May-2017,1,19,stim.wav,0,2,293,-2.823783989823108,1,0.8754156966650188
6,19-May-2017,1,19,stim.wav,0,3,406,8.21160482041951,1,0.8754156966650188
6,19-May-2017,1,19,stim.wav,0,4,533,5.168366174827655,1,0.8754156966650188
6,19-May-2017,1,19,stim.wav,0,5,673,6.504252211749499,1,0.8754156966650188
6,19-May-2017,1,19,stim.wav,0,6,830,-7.2769177107926755,1,0.8754156966650188
6,19-May-2017,1,19,stim.wav,0,7,1004,-6.056379647508658,1,0.8754156966650188
6,19-May-2017,1,19,stim.wav,0,8,1199,-10.59175859001309,1,0.8754156966650188
6,19-May-2017,1,19,stim.wav,0,9,1416,-1.9788178957310711,1,0.8754156966650188
6,19-May-2017,1,19,stim.wav,0,10,1657,0.5916563140219713,1,0.8754156966650188
6,19-May-2017,1,19,stim.wav,0,11,1926,3.848236935121915,1,0.8754156966650188
6,19-May-2017,1,19,stim.wav,0,12,2226,-4.253106557670357,1,0.8754156966650188
6,19-May-2017,1,19,stim.wav,0,13,2560,-3.2002251637987866,1,0.8754156966650188
6,19-May-2017,1,19,stim.wav,0,14,2932,4.729910025203184,1,0.8754156966650188
6,19-May-2017,1,19,stim.wav,0,15,3346,3.7182312481575375,1,0.8754156966650188
6,19-May-2017,1,19,stim.wav,0,16,3808,6.151269245215598,1,0.8754156966650188
6,19-May-2017,1,19,stim.wav,0,17,4322,-5.5796048459722964,1,0.8754156966650188
6,19-May-2017,1,19,stim.wav,0,18,4895,-2.5963180443740157,1,0.8754156966650188
6,19-May-2017,1,19,stim.wav,0,19,5534,-3.7847325487932775,1,0.8754156966650188
6,19-May-2017,1,19,stim.wav,0,20,6245,7.720990388741692,1,0.8754156966650188
6,19-May-2017,1,19,stim.wav,0,21,7037,3.2556669907633995,1,0.8754156966650188
6,19-May-2017,1,19,stim.wav,0,22,7920,-4.2864692238350734,1,0.8754156966650188
6,19-May-2017,1,19,stim.wav,0,23,8904,2.4224944878649977,1,0.8754156966650188
6,19-May-2017,1,19,stim.wav,0,24,10000,1.847523762287512,1,0.8754156966650188
6,19-May-2017,1,19,stim.wav,1,0,100,-3.175831577260734,0,0.8754156966650188
6,19-May-2017,1,19,stim.wav,1,1,191,1.1921865735709076,0,0.8754156966650188
6,19-May-2017,1,19,stim.wav,1,2,293,3.5664692660257646,0,0.8754156966650188
6,19-May-2017,1,19,stim.wav,1,3,406,1.8524270815217907,0,0.8754156966650188
6,19-May-2017,1,19,stim.wav,1,4,533,1.8139368622680818,0,0.8754156966650188
6,19-May-2017,1,19,stim.wav,1,5,673,1.4364919145243868,0,0.8754156966650188
6,19-May-2017,1,19,stim.wav,1,6,830,-6.884144172616574,0,0.8754156966650188
6,19-May-2017,1,19,stim.wav,1,7,1004,-3.434994837879164,0,0.8754156966650188
6,19-May-2017,1,19,stim.wav,1,8,1199,-3.747294728129776,0,0.8754156966650188
6,19-May-2017,1,19,stim.wav,1,9,1416,0.94612834603013,0,0.8754156966650188
6,19-May-2017,1,19,stim.wav,1,10,1657,-2.334606993859119,0,0.8754156966650188
6,19-May-2017,1,19,stim.wav,1,11,1926,-8.294967183752586,0,0.8754156966650188
6,19-May-2017,1,19,stim.wav,1,12,2226,9.953496463186575,0,0.8754156966650188
6,19-May-2017,1,19,stim.wav,1,13,2560,8.474133992195506,0,0.8754156966650188
6,19-May-2017,1,19,stim.wav,1,14,2932,2.301620184555946,0,0.8754156966650188
6,19-May-2017,1,19,stim.wav,1,15,3346,5.956568898958111,0,0.8754156966650188
6,19-May-2017,1,19,stim.wav,1,16,3808,6.605051974108966,0,0.8754156966650188
6,19-May-2017,1,19,stim.wav,1,17,4322,3.3974357905296704,0,0.8754156966650188
6,19-May-2017,1,19,stim.wav,1,18,4895,12.299689981568509,0,0.8754156966650188
6,19-May-2017,1,19,stim.wav,1,19,5534,-5.530439099578146,0,0.8754156966650188
6,19-May-2017,1,19,stim.wav,1,20,6245,-7.016736104471967,0,0.8754156966650188
6,19-May-2017,1,19,stim.wav,1,21,7037,-0.7120995676315633,0,0.8754156966650188
6,19-May-2017,1,19,stim.wav,1,22,7920,-1.3691359526834463,0,0.8754156966650188
6,19-May-2017,1,19,stim.wav,1,23,8904,-5.065784275180121,0,0.8754156966650188
6,19-May-2017,1,19,stim.wav,1,24,10000,-3.5444234664832046,0,0.8754156966650188
6,19-May-2017,1,20,stim.wav,0,0,100,-0.8136288867579254,1,0.7018943896986253
6,19-May-2017,1,20,stim.wav,0,1,191,3.8658091380282174,1,0.7018943896986253
6,19-May-2017,1,20,stim.wav,0,2,293,-8.09312071243509,1,0.7018943896986253
6,19-May-2017,1,20,stim.wav,0,3,406,-0.8338900127234116,1,0.7018943896986253
6,19-May-2017,1,20,stim.wav,0,4,533,-1.134736461046974,1,0.7018943896986253
6,19-May-2017,1,20,stim.wav,0,5,673,-1.134614589917421,1,0.7018943896986253
6,19-May-2017,1,20,stim.wav,0,6,830,3.3283837477319445,1,0.7018943896986253
6,19-May-2017,1,20,stim.wav,0,7,1004,-0.5526623222332793,1,0.7018943896986253
6,19-May-2017,1,20,stim.wav,0,8,1199,7.8053613804817035,1,0.7018943896986253
6,19-May-2017,1,20,stim.wav,0,9,1416,-1.1820773196516159,1,0.7018943896986253
6,19-May-2017,1,20,stim.wav,0,10,1657,5.683719469181608,1,0.7018943896986253
6,19-May-2017,1,20,stim.wav,0,11,1926,6.762416970377847,1,0.7018943896986253
6,19-May-2017,1,20,stim.wav,0,12,2226,-2.8973744858488755,1,0.7018943896986253
6,19-May-2017,1,20,stim.wav,0,13,2560,-2.162872557909094,1,0.7018943896986253
6,19-May-2017,1,20,stim.wav,0,14,2932,-1.2530639604368201,1,0.7018943896986253
6,19-May-2017,1,20,stim.wav,0,15,3346,-1.7167054361390413,1,0.7018943896986253
6,19-May-2017,1,20,stim.wav,0,16,3808,-1.7213521228194992,1,0.7018943896986253
6,19-May-2017,1,20,stim.wav,0,17,4322,-5.718487108133265,1,0.7018943896986253
6,19-May-2017,1,20,stim.wav,0,18,4895,1.8991886998876806,1,0.7018943896986253
6,19-May-2017,1,20,stim.wav,0,19,5534,3.4047424041277448,1,0.7018943896986253
6,19-May-2017,1,20,stim.wav,0,20,6245,-4.948640237840209,1,0.7018943896986253
6,19-May-2017,1,20,stim.wav,0,21,7037,0.5084587940443388,1,0.7018943896986253
6,19-May-2017,1,20,stim.wav,0,22,7920,-6.429273137850276,1,0.7018943896986253
6,19-May-2017,1,20,stim.wav,0,23,8904,8.361690169459798,1,0.7018943896986253
6,19-May-2017,1,20,stim.wav,0,24,10000,2.836958034074883,1,0.7018943896986253
6,19-May-2017,1,20,stim.wav,1,0,100,-7.918756237021116,0,0.7018943896986253
6,19-May-2017,1,20,stim.wav,1,1,191,12.325137275936282,0,0.7018943896986253
6,19-May-2017,1,20,stim.wav,1,2,293,-8.784201786843349,0,0.7018943896986253
6,19-May-2017,1,20,stim.wav,1,3,406,8.078403127926663,0,0.7018943896986253
6,19-May-2017,1,20,stim.wav,1,4,533,-4.824226580017339,0,0.7018943896986253
6,19-May-2017,1,20,stim.wav,1,5,673,2.6295580348388228,0,0.7018943896986253
6,19-May-2017,1,20,stim.wav,1,6,830,4.204203212097987,0,0.7018943896986253
6,19-May-2017,1,20,stim.wav,1,7,1004,-0.8941060846638961,0,0.7018943896986253
6,19-May-2017,1,20,stim.wav,1,8,1199,-0.9200738431110258,0,0.7018943896986253
6,19-May-2017,1,20,stim.wav,1,9,1416,-0.608505319344065,0,0.7018943896986253
6,19-May-2017,1,20,stim.wav,1,10,1657,-3.979024453713939,0,0.7018943896986253
6,19-May-2017,1,20,stim.wav,1,11,1926,-0.40577833359095894,0,0.7018943896986253
6,19-May-2017,1,20,stim.wav,1,12,2226,2.296460896729266,0,0.7018943896986253
6,19-May-2017,1,20,stim.wav,1,13,2560,2.9327585379322203,0,0.7018943896986253
6,19-May-2017,1,20,stim.wav,1,14,2932,6.198911387753224,0,0.7018943896986253
6,19-May-2017,1,20,stim.wav,1,15,3346,10.592770617419319,0,0.7018943896986253
6,19-May-2017,1,20,stim.wav,1,16,3808,1.433939191529105,0,0.7018943896986253
6,19-May-2017,1,20,stim.wav,1,17,4322,-9.008653233296666,0,0.7018943896986253
6,19-May-2017,1,20,stim.wav,1,18,4895,-5.7519605880451845,0,0.7018943896986253
6,19-May-2017,1,20,stim.wav,1,19,5534,-2.6493808500479252,0,0.7018943896986253
6,19-May-2017,1,20,stim.wav,1,20,6245,9.43848779772663,0,0.7018943896986253
6,19-May-2017,1,20,stim.wav,1,21,7037,-0.45340496134333724,0,0.7018943896986253
6,19-May-2017,1,20,stim.wav,1,22,7920,-4.3574612906831,0,0.7018943896986253
6,19-May-2017,1,20,stim.wav,1,23,8904,-0.7065685404511481,0,0.7018943896986253
6,19-May-2017,1,20,stim.wav,1,24,10000,-3.655315884282241,0,0.7018943896986253
6,19-May-2017,1,21,stim.wav,0,0,100,2.628389509500618,0,1.2245126329707623
6,19-May-2017,1,21,stim.wav,0,1,191,-0.5662834858607951,0,1.2245126329707623
6,19-May-2017,1,21,stim.wav,0,2,293,-1.8482442805636434,0,1.2245126329707623
6,19-May-2017,1,21,stim.wav,0,3,406,3.72270151965634,0,1.2245126329707623
6,19-May-2017,1,21,stim.wav,0,4,533,3.221182384375281,0,1.2245126329707623
6,19-May-2017,1,21,stim.wav,0,5,673,-4.502237147344646,0,1.2245126329707623
6,19-May-2017,1,21,stim.wav,0,6,830,2.0219796255915297,0,1.2245126329707623
6,19-May-2017,1,21,stim.wav,0,7,1004,-2.0013394610202906,0,1.2245126329707623
6,19-May-2017,1,21,stim.wav,0,8,1199,8.438686154243646,0,1.2245126329707623
6,19-May-2017,1,21,stim.wav,0,9,1416,-4.79287840541845,0,1.2245126329707623
6,19-May-2017,1,21,stim.wav,0,10,1657,4.82725967938504,0,1.2245126329707623
6,19-May-2017,1,21,stim.wav,0,11,1926,4.123061482863043,0,1.2245126329707623
6,19-May-2017,1,21,stim.wav,0,12,2226,4.393370342489834,0,1.2245126329707623
6,19-May-2017,1,21,stim.wav,0,13,2560,-0.7218757187943654,0,1.2245126329707623
6,19-May-2017,1,21,stim.wav,0,14,2932,3.9177162085299777,0,1.2245126329707623
6,19-May-2017,1,21,stim.wav,0,15,3346,-2.6565762010704037,0,1.2245126329707623
6,19-May-2017,1,21,stim.wav,0,16,3808,-4.233288181778691,0,1.2245126329707623
6,19-May-2017,1,21,stim.wav,0,17,4322,6.560734969078955,0,1.2245126329707623
6,19-May-2017,1,21,stim.wav,0,18,4895,-2.6129001748546683,0,1.2245126329707623
6,19-May-2017,1,21,stim.wav,0,19,5534,-2.565024621577982,0,1.2245126329707623
6,19-May-2017,1,21,stim.wav,0,20,6245,3.8930780959762563,0,1.2245126329707623
6,19-May-2017,1,21,stim.wav,0,21,7037,-5.492141191612162,0,1.2245126329707623
6,19-May-2017,1,21,stim.wav,0,22,7920,0.09596747531770503,0,1.2245126329707623
6,19-May-2017,1,21,stim.wav,0,23,8904,-1.5782653837648999,0,1.2245126329707623
6,19-May-2017,1,21,stim.wav,0,24,10000,3.623915039926842,0,1.2245126329707623
6,19-May-2017,1,21,stim.wav,1,0,100,5.856076998672394,1,1.2245126329707623
6,19-May-2017,1,21,stim.wav,1,1,191,-0.8915431565406302,1,1.2245126329707623
6,19-May-2017,1,21,stim.wav,1,2,293,0.19548339003374482,1,1.2245126329707623
6,19-May-2017,1,21,stim.wav,1,3,406,1.8589243636123665,1,1.2245126329707623
6,19-May-2017,1,21,stim.wav,1,4,533,-3.9102093558783984,1,1.2245126329707623
6,19-May-2017,1,21,stim.wav,1,5,673,-1.756406583011395,1,1.2245126329707623
6,19-May-2017,1,21,stim.wav,1,6,830,1.012049502501686,1,1.2245126329707623
6,19-May-2017,1,21,stim.wav,1,7,1004,-6.246831833323668,1,1.2245126329707623
6,19-May-2017,1,21,stim.wav,1,8,1199,0.3417307273073934,1,1.2245126329707623
6,19-May-2017,1,21,stim.wav,1,9,1416,-1.652798028543513,1,1.2245126329707623
6,19-May-2017,1,21,stim.wav,1,10,1657,-0.2985744980903831,1,1.2245126329707623
6,19-May-2017,1,21,stim.wav,1,11,1926,4.090904506050056,1,1.2245126329707623
6,19-May-2017,1,21,stim.wav,1,12,2226,2.5276702945693668,1,1.2245126329707623
6,19-May-2017,1,21,stim.wav,1,13,2560,6.6939022475480865,1,1.2245126329707623
6,19-May-2017,1,21,stim.wav,1,14,2932,1.7951407518971,1,1.2245126329707623
6,19-May-2017,1,21,stim.wav,1,15,3346,4.3524739202556635,1,1.2245126329707623
6,19-May-2017,1,21,stim.wav,1,16,3808,-1.5063951969962637,1,1.2245126329707623
6,19-May-2017,1,21,stim.wav,1,17,4322,1.581737089627648,1,1.2245126329707623
6,19-May-2017,1,21,stim.wav,1,18,4895,1.4647950578108482,1,1.2245126329707623
6,19-May-2017,1,21,stim.wav,1,19,5534,-3.188260455879044,1,1.2245126329707623
6,19-May-2017,1,21,stim.wav,1,20,6245,9.457337231800594,1,1.2245126329707623
6,19-May-2017,1,21,stim.wav,1,21,7037,1.2568533351035336,1,1.2245126329707623
6,19-May-2017,1,21,stim.wav,1,22,7920,7.438734151720041,1,1.2245126329707623
6,19-May-2017,1,21,stim.wav,1,23,8904,3.236345533451469,1,1.2245126329707623
6,19-May-2017,1,21,stim.wav,1,24,10000,6.566890511978796,1,1.2245126329707623
6,19-May-2017,1,22,stim.wav,0,0,100,-4.065718716569005,1,2.3610759791386213
6,19-May-2017,1,22,stim.wav,0,1,191,7.200818030128557,1,2.3610759791386213
6,19-May-2017,1,22,stim.wav,0,2,293,-3.6944809746291214,1,2.3610759791386213
6,19-May-2017,1,22,stim.wav,0,3,406,8.303024673200786,1,2.3610759791386213
6,19-May-2017,1,22,stim.wav,0,4,533,4.935142148029697,1,2.3610759791386213
6,19-May-2017,1,22,stim.wav,0,5,673,1.961575413930885,1,2.3610759791386213
6,19-May-2017,1,22,stim.wav,0,6,830,0.41888147153282407,1,2.3610759791386213
6,19-May-2017,1,22,stim.wav,0,7,1004,-4.79286771309824,1,2.3610759791386213
6,19-May-2017,1,22,stim.wav,0,8,1199,1.679023591590079,1,2.3610759791386213
6,19-May-2017,1,22,stim.wav,0,9,1416,-1.2325980125987637,1,2.3610759791386213
6,19-May-2017,1,22,stim.wav,0,10,1657,-4.382882752735055,1,2.3610759791386213
6,19-May-2017,1,22,stim.wav,0,11,1926,-3.828585358590877,1,2.3610759791386213
6,19-May-2017,1,22,stim.wav,0,12,2226,8.418561951365843,1,2.3610759791386213
6,19-May-2017,1,22,stim.wav,0,13,2560,1.5733190322635229,1,2.3610759791386213
6,19-May-2017,1,22,stim.wav,0,14,2932,-1.9798682262920702,1,2.3610759791386213
6,19-May-2017,1,22,stim.wav,0,15,3346,1.490302495794553,1,2.3610759791386213
6,19-May-2017,1,22,stim.wav,0,16,3808,-0.34998409802850855,1,2.3610759791386213
6,19-May-2017,1,22,stim.wav,0,17,4322,7.110585565897307,1,2.3610759791386213
6,19-May-2017,1,22,stim.wav,0,18,4895,-3.324306679249016,1,2.3610759791386213
6,19-May-2017,1,22,stim.wav,0,19,5534,0.968873351332225,1,2.3610759791386213
6,19-May-2017,1,22,stim.wav,0,20,6245,-3.8031772204307828,1,2.3610759791386213
6,19-May-2017,1,22,stim.wav,0,21,7037,-1.5476300430620582,1,2.3610759791386213
6,19-May-2017,1,22,stim.wav,0,22,7920,7.958191827124069,1,2.3610759791386213
6,19-May-2017,1,22,stim.wav,0,23,8904,1.2072818807120969,1,2.3610759791386213
6,19-May-2017,1,22,stim.wav,0,24,10000,6.367663634075153,1,2.3610759791386213
6,19-May-2017,1,22,stim.wav,1,0,100,4.898405430769568,0,2.3610759791386213
6,19-May-2017,1,22,stim.wav,1,1,191,3.230881592380727,0,2.3610759791386213
6,19-May-2017,1,22,stim.wav,1,2,293,0.5364282623542265,0,2.3610759791386213
6,19-May-2017,1,22,stim.wav,1,3,406,0.48477441948706257,0,2.3610759791386213
6,19-May-2017,1,22,stim.wav,1,4,533,7.165066451773949,0,2.3610759791386213
6,19-May-2017,1,22,stim.wav,1,5,673,7.141191408655624,0,2.3610759791386213
6,19-May-2017,1,22,stim.wav,1,6,830,1.6342055194494778,0,2.3610759791386213
6,19-May-2017,1,22,stim.wav,1,7,1004,-2.479162766183441,0,2.3610759791386213
6,19-May-2017,1,22,stim.wav,1,8,1199,-2.9266103372410015,0,2.3610759791386213
6,19-May-2017,1,22,stim.wav,1,9,1416,-7.191828305555643,0,2.3610759791386213
6,19-May-2017,1,22,stim.wav,1,10,1657,8.97859275008112,0,2.3610759791386213
6,19-May-2017,1,22,stim.wav,1,11,1926,-3.0977893448017264,0,2.3610759791386213
6,19-May-2017,1,22,stim.wav,1,12,2226,-5.985453082075781,0,2.3610759791386213
6,19-May-2017,1,22,stim.wav,1,13,2560,8.109811407283853,0,2.3610759791386213
6,19-May-2017,1,22,stim.wav,1,14,2932,-1.4239600787808144,0,2.3610759791386213
6,19-May-2017,1,22,stim.wav,1,15,3346,-4.772491481376448,0,2.3610759791386213
6,19-May-2017,1,22,stim.wav,1,16,3808,10.531927120621873,0,2.3610759791386213
6,19-May-2017,1,22,stim.wav,1,17,4322,3.543867268444351,0,2.3610759791386213
6,19-May-2017,1,22,stim.wav,1,18,4895,-5.601429007660302,0,2.3610759791386213
6,19-May-2017,1,22,stim.wav,1,19,5534,5.7480388488448675,0,2.3610759791386213
6,19-May-2017,1,22,stim.wav,1,20,6245,-0.3589927482981491,0,2.3610759791386213
6,19-May-2017,1,22,stim.wav,1,21,7037,1.0373677342050145,0,2.3610759791386213
6,19-May-2017,1,22,stim.wav,1,22,7920,1.3727322762464542,0,2.3610759791386213
6,19-May-2017,1,22,stim.wav,1,23,8904,-0.5431635323966639,0,2.3610759791386213
6,19-May-2017,1,22,stim.wav,1,24,10000,1.4230508887224091,0,2.3610759791386213
6,19-May-2017,1,23,stim.wav,0,0,100,9.02192906358895,1,0.9711522507744333
6,19-May-2017,1,23,stim.wav,0,1,191,-5.526293109064181,1,0.9711522507744333
6,19-May-2017,1,23,stim.wav,0,2,293,1.8624370678433104,1,0.9711522507744333
6,19-May-2017,1,23,stim.wav,0,3,406,-1.4663055446639879,1,0.9711522507744333
6,19-May-2017,1,23,stim.wav,0,4,533,-0.9621323606363654,1,0.9711522507744333
6,19-May-2017,1,23,stim.wav,0,5,673,-1.0884583603780802,1,0.9711522507744333
6,19-May-2017,1,23,stim.wav,0,6,830,4.728517554048139,1,0.9711522507744333
6,19-May-2017,1,23,stim.wav,0,7,1004,-0.9179111156134996,1,0.9711522507744333
6,19-May-2017,1,23,stim.wav,0,8,1199,0.6000099701461515,1,0.9711522507744333
6,19-May-2017,1,23,stim.wav,0,9,1416,-8.926578415032553,1,0.9711522507744333
6,19-May-2017,1,23,stim.wav,0,10,1657,-4.541311052743126,1,0.9711522507744333
6,19-May-2017,1,23,stim.wav,0,11,1926,-2.388584690041827,1,0.9711522507744333
6,19-May-2017,1,23,stim.wav,0,12,2226,-5.974609905046298,1,0.9711522507744333
6,19-May-2017,1,23,stim.wav,0,13,2560,-3.550131646747921,1,0.9711522507744333
6,19-May-2017,1,23,stim.wav,0,14,2932,-0.6734176611119981,1,0.9711522507744333
6,19-May-2017,1,23,stim.wav,0,15,3346,-3.9031552571595016,1,0.9711522507744333
6,19-May-2017,1,23,stim.wav,0,16,3808,5.771460800323778,1,0.9711522507744333
6,19-May-2017,1,23,stim.wav,0,17,4322,-1.3097828459475163,1,0.9711522507744333
6,19-May-2017,1,23,stim.wav,0,18,4895,-6.738926889701564,1,0.9711522507744333
6,19-May-2017,1,23,stim.wav,0,19,5534,-0.342465474702959,1,0.9711522507744333
6,19-May-2017,1,23,stim.wav,0,20,6245,-0.21166974310644215,1,0.9711522507744333
6,19-May-2017,1,23,stim.wav,0,21,7037,6.00904850293249,1,0.9711522507744333
6,19-May-2017,1,23,stim.wav,0,22,7920,1.6791718520121344,1,0.9711522507744333
6,19-May-2017,1,23,stim.wav,0,23,8904,0.37797691317104587,1,0.9711522507744333
6,19-May-2017,1,23,stim.wav,0,24,10000,-3.9763106208995773,1,0.9711522507744333
6,19-May-2017,1,23,stim.wav,1,0,100,-6.797987004356191,0,0.9711522507744333
6,19-May-2017,1,23,stim.wav,1,1,191,2.059938975671058,0,0.9711522507744333
6,19-May-2017,1,23,stim.wav,1,2,293,-3.372615034839624,0,0.9711522507744333
6,19-May-2017,1,23,stim.wav,1,3,406,-5.304646973597167,0,0.9711522507744333
6,19-May-2017,1,23,stim.wav,1,4,533,5.220629109873995,0,0.9711522507744333
6,19-May-2017,1,23,stim.wav,1,5,673,-4.321515739804309,0,0.9711522507744333
6,19-May-2017,1,23,stim.wav,1,6,830,2.2567015798983054,0,0.9711522507744333
6,19-May-2017,1,23,stim.wav,1,7,1004,-1.8123685269967624,0,0.9711522507744333
6,19-May-2017,1,23,stim.wav,1,8,1199,5.783710980420218,0,0.9711522507744333
6,19-May-2017,1,23,stim.wav,1,9,1416,-4.576398661968348,0,0.9711522507744333
6,19-May-2017,1,23,stim.wav,1,10,1657,6.694477185233309,0,0.9711522507744333
6,19-May-2017,1,23,stim.wav,1,11,1926,-0.022858237768463383,0,0.9711522507744333
6,19-May-2017,1,23,stim.wav,1,12,2226,-5.40248033086022,0,0.9711522507744333
6,19-May-2017,1,23,stim.wav,1,13,2560,6.342307839498189,0,0.9711522507744333
6,19-May-2017,1,23,stim.wav,1,14,2932,4.681523577765506,0,0.9711522507744333
6,19-May-2017,1,23,stim.wav,1,15,3346,3.2010822874637084,0,0.9711522507744333
6,19-May-2017,1,23,stim.wav,1,16,3808,0.2837566760438291,0,0.9711522507744333
6,19-May-2017,1,23,stim.wav,1,17,4322,-0.34494005165433483,0,0.9711522507744333
6,19-May-2017,1,23,stim.wav,1,18,4895,-2.2656746089771578,0,0.9711522507744333
6,19-May-2017,1,23,stim.wav,1,19,5534,0.01675968629833844,0,0.9711522507744333
6,19-May-2017,1,23,stim.wav,1,20,6245,-0.8417146336795428,0,0.9711522507744333
6,19-May-2017,1,23,stim.wav,1,21,7037,3.8287190647504357,0,0.9711522507744333
6,19-May-2017,1,23,stim.wav,1,22,7920,6.146951536225674,0,0.9711522507744333
6,19-May-2017,1,23,stim.wav,1,23,8904,4.576986239978607,0,0.9711522507744333
6,19-May-2017,1,23,stim.wav,1,24,10000,-1.399375415322142,0,0.9711522507744333
6,19-May-2017,1,24,stim.wav,0,0,100,-3.0017050972584745,1,1.2661351542281238
6,19-May-2017,1,24,stim.wav,0,1,191,2.4908400964475836,1,1.2661351542281238
6,19-May-2017,1,24,stim.wav,0,2,293,-3.473524513462643,1,1.2661351542281238
6,19-May-2017,1,24,stim.wav,0,3,406,3.3076366448039565,1,1.2661351542281238
6,19-May-2017,1,24,stim.wav,0,4,533,2.4445332576288696,1,1.2661351542281238
6,19-May-2017,1,24,stim.wav,0,5,673,3.345850881718033,1,1.2661351542281238
6,19-May-2017,1,24,stim.wav,0,6,830,3.753223326598143,1,1.2661351542281238
6,19-May-2017,1,24,stim.wav,0,7,1004,-0.1451428891713013,1,1.2661351542281238
6,19-May-2017,1,24,stim.wav,0,8,1199,-10.29208480382418,1,1.2661351542281238
6,19-May-2017,1,24,stim.wav,0,9,1416,2.809599172629727,1,1.2661351542281238
6,19-May-2017,1,24,stim.wav,0,10,1657,-0.7393203231553896,1,1.2661351542281238
6,19-May-2017,1,24,stim.wav,0,11,1926,-1.8910999638452972,1,1.2661351542281238
6,19-May-2017,1,24,stim.wav,0,12,2226,2.9819243470565504,1,1.2661351542281238
6,19-May-2017,1,24,stim.wav,0,13,2560,10.949202981831274,1,1.2661351542281238
6,19-May-2017,1,24,stim.wav,0,14,2932,1.1727305655722928,1,1.2661351542281238
6,19-May-2017,1,24,stim.wav,0,15,3346,-0.320986780055078,1,1.2661351542281238
6,19-May-2017,1,24,stim.wav,0,16,3808,2.1049309060528825,1,1.2661351542281238
6,19-May-2017,1,24,stim.wav,0,17,4322,-0.619585645678349,1,1.2661351542281238
6,19-May-2017,1,24,stim.wav,0,18,4895,-4.820952174464495,1,1.2661351542281238
6,19-May-2017,1,24,stim.wav,0,19,5534,0.427057228565628,1,1.2661351542281238
6,19-May-2017,1,24,stim.wav,0,20,6245,-4.461988810999719,1,1.2661351542281238
6,19-May-2017,1,24,stim.wav,0,21,7037,2.2970815958159765,1,1.2661351542281238
6,19-May-2017,1,24,stim.wav,0,22,7920,-1.712854942845258,1,1.2661351542281238
6,19-May-2017,1,24,stim.wav,0,23,8904,-2.880789611244526,1,1.2661351542281238
6,19-May-2017,1,24,stim.wav,0,24,10000,-0.13704735780879174,1,1.2661351542281238
6,19-May-2017,1,24,stim.wav,1,0,100,-4.371028567208772,0,1.2661351542281238
6,19-May-2017,1,24,stim.wav,1,1,191,5.82922440466013,0,1.2661351542281238
6,19-May-2017,1,24,stim.wav,1,2,293,5.273043851136059,0,1.2661351542281238
6,19-May-2017,1,24,stim.wav,1,3,406,-1.185900412044192,0,1.2661351542281238
6,19-May-2017,1,24,stim.wav,1,4,533,-2.30979319037137,0,1.2661351542281238
6,19-May-2017,1,24,stim.wav,1,5,673,2.249433388857347,0,1.2661351542281238
6,19-May-2017,1,24,stim.wav,1,6,830,-1.0084439338494302,0,1.2661351542281238
6,19-May-2017,1,24,stim.wav,1,7,1004,5.339203119503468,0,1.2661351542281238
6,19-May-2017,1,24,stim.wav,1,8,1199,2.0175264434369526,0,1.2661351542281238
6,19-May-2017,1,24,stim.wav,1,9,1416,3.69216536633086,0,1.2661351542281238
6,19-May-2017,1,24,stim.wav,1,10,1657,-12.475266058081278,0,1.2661351542281238
6,19-May-2017,1,24,stim.wav,1,11,1926,-10.842571651285983,0,1.2661351542281238
6,19-May-2017,1,24,stim.wav,1,12,2226,-1.596794682519046,0,1.2661351542281238
6,19-May-2017,1,24,stim.wav,1,13,2560,1.5780207576839196,0,1.2661351542281238
6,19-May-2017,1,24,stim.wav,1,14,2932,-8.956810508961631,0,1.2661351542281238
6,19-May-2017,1,24,stim.wav,1,15,3346,-7.427821151589647,0,1.2661351542281238
6,19-May-2017,1,24,stim.wav,1,16,3808,8.329836168477174,0,1.2661351542281238
6,19-May-2017,1,24,stim.wav,1,17,4322,5.238608716848669,0,1.2661351542281238
6,19-May-2017,1,24,stim.wav,1,18,4895,-4.477399607803177,0,1.2661351542281238
6,19-May-2017,1,24,stim.wav,1,19,5534,-3.5774710394002263,0,1.2661351542281238
6,19-May-2017,1,24,stim.wav,1,20,6245,3.27635745732408,0,1.2661351542281238
6,19-May-2017,1,24,stim.wav,1,21,7037,4.283830689292519,0,1.2661351542281238
6,19-May-2017,1,24,stim.wav,1,22,7920,-0.2951776290020519,0,1.2661351542281238
6,19-May-2017,1,24,stim.wav,1,23,8904,1.9193920040606174,0,1.2661351542281238
6,19-May-2017,1,24,stim.wav,1,24,10000,4.481601549819786,0,1.2661351542281238
6,19-May-2017,1,25,stim.wav,0,0,100,0.32324800289332734,1,1.7338621089560586
6,19-May-2017,1,25,stim.wav,0,1,191,-0.8221831036126133,1,1.7338621089560586
6,19-May-2017,1,25,stim.wav,0,2,293,4.256768695419198,1,1.7338621089560586
6,19-May-2017,1,25,stim.wav,0,3,406,6.913374365211712,1,1.7338621089560586
6,19-May-2017,1,25,stim.wav,0,4,533,1.690037584157612,1,1.7338621089560586
6,19-May-2017,1,25,stim.wav,0,5,673,-3.7748098314700638,1,1.7338621089560586
6,19-May-2017,1,25,stim.wav,0,6,830,-7.195499765136816,1,1.7338621089560586
6,19-May-2017,1,25,stim.wav,0,7,1004,-5.461155111174899,1,1.7338621089560586
6,19-May-2017,1,25,stim.wav,0,8,1199,-3.505576230731178,1,1.7338621089560586
6,19-May-2017,1,25,stim.wav,0,9,1416,6.298729172330232,1,1.7338621089560586
6,19-May-2017,1,25,stim.wav,0,10,1657,-3.9332029332005543,1,1.7338621089560586
6,19-May-2017,1,25,stim.wav,0,11,1926,-6.1172002895037,1,1.7338621089560586
6,19-May-2017,1,25,stim.wav,0,12,2226,2.6215881987008838,1,1.7338621089560586
6,19-May-2017,1,25,stim.wav,0,13,2560,2.0756894662645435,1,1.7338621089560586
6,19-May-2017,1,25,stim.wav,0,14,2932,-1.24720048584242,1,1.7338621089560586
6,19-May-2017,1,25,stim.wav,0,15,3346,-3.570084329822923,1,1.7338621089560586
6,19-May-2017,1,25,stim.wav,0,16,3808,7.19314336330807,1,1.7338621089560586
6,19-May-2017,1,25,stim.wav,0,17,4322,-9.591969631626617,1,1.7338621089560586
6,19-May-2017,1,25,stim.wav,0,18,4895,3.6813944805404395,1,1.7338621089560586
6,19-May-2017,1,25,stim.wav,0,19,5534,-9.262056802093332,1,1.7338621089560586
6,19-May-2017,1,25,stim.wav,0,20,6245,0.7645428382332115,1,1.7338621089560586
6,19-May-2017,1,25,stim.wav,0,21,7037,5.077385712533121,1,1.7338621089560586
6,19-May-2017,1,25,stim.wav,0,22,7920,6.233456629827607,1,1.7338621089560586
6,19-May-2017,1,25,stim.wav,0,23,8904,2.0466552816706876,1,1.7338621089560586
6,19-May-2017,1,25,stim.wav,0,24,10000,3.7606959965067794,1,1.7338621089560586
6,19-May-2017,1,25,stim.wav,1,0,100,7.345188549531354,0,1.7338621089560586
6,19-May-2017,1,25,stim.wav,1,1,191,-1.3439671869402912,0,1.7338621089560586
6,19-May-2017,1,25,stim.wav,1,2,293,1.3297863998102866,0,1.7338621089560586
6,19-May-2017,1,25,stim.wav,1,3,406,-0.21269089784051942,0,1.7338621089560586
6,19-May-2017,1,25,stim.wav,1,4,533,3.138075535704228,0,1.7338621089560586
6,19-May-2017,1,25,stim.wav,1,5,673,6.434407619581425,0,1.7338621089560586
6,19-May-2017,1,25,stim.wav,1,6,830,-6.153763588858954,0,1.7338621089560586
6,19-May-2017,1,25,stim.wav,1,7,1004,-0.6545785276547644,0,1.7338621089560586
6,19-May-2017,1,25,stim.wav,1,8,1199,2.896803003179342,0,1.7338621089560586
6,19-May-2017,1,25,stim.wav,1,9,1416,-1.9194834421699487,0,1.7338621089560586
6,19-May-2017,1,25,stim.wav,1,10,1657,5.585156773627969,0,1.7338621089560586
6,19-May-2017,1,25,stim.wav,1,11,1926,5.881719828722049,0,1.7338621089560586
6,19-May-2017,1,25,stim.wav,1,12,2226,-5.383209324383648,0,1.7338621089560586
6,19-May-2017,1,25,stim.wav,1,13,2560,-0.8231593522462302,0,1.7338621089560586
6,19-May-2017,1,25,stim.wav,1,14,2932,2.2810258377668133,0,1.7338621089560586
6,19-May-2017,1,25,stim.wav,1,15,3346,-0.18031811959277405,0,1.7338621089560586
6,19-May-2017,1,25,stim.wav,1,16,3808,1.014072801045585,0,1.7338621089560586
6,19-May-2017,1,25,stim.wav,1,17,4322,-2.266425986461253,0,1.7338621089560586
6,19-May-2017,1,25,stim.wav,1,18,4895,0.35178370557991173,0,1.7338621089560586
6,19-May-2017,1,25,stim.wav,1,19,5534,1.949167482869619,0,1.7338621089560586
6,19-May-2017,1,25,stim.wav,1,20,6245,-8.597160036941837,0,1.7338621089560586
6,19-May-2017,1,25,stim.wav,1,21,7037,-7.2060267406299054,0,1.7338621089560586
6,19-May-2017,1,25,stim.wav,1,22,7920,3.2814595403174502,0,1.7338621089560586
6,19-May-2017,1,25,stim.wav,1,23,8904,-3.090367876475517,0,1.7338621089560586
6,19-May-2017,1,25,stim.wav,1,24,10000,2.4728670517005633,0,1.7338621089560586
6,19-May-2017,1,26,stim.wav,0,0,100,4.05625151392098,1,2.1278479561972627
6,19-May-2017,1,26,stim.wav,0,1,191,-3.489594108596219,1,2.1278479561972627
6,19-May-2017,1,26,stim.wav,0,2,293,-10.78930562174035,1,2.1278479561972627
6,19-May-2017,1,26,stim.wav,0,3,406,-9.857453132248924,1,2.1278479561972627
6,19-May-2017,1,26,stim.wav,0,4,533,6.914301078146163,1,2.1278479561972627
6,19-May-2017,1,26,stim.wav,0,5,673,3.3846202004037402,1,2.1278479561972627
6,19-May-2017,1,26,stim.wav,0,6,830,0.0031779226768919727,1,2.1278479561972627
6,19-May-2017,1,26,stim.wav,0,7,1004,-1.4092236228244313,1,2.1278479561972627
6,19-May-2017,1,26,stim.wav,0,8,1199,8.864760378270365,1,2.1278479561972627
6,19-May-2017,1,26,stim.wav,0,9,1416,-5.709669678674425,1,2.1278479561972627
6,19-May-2017,1,26,stim.wav,0,10,1657,9.137834875818564,1,2.1278479561972627
6,19-May-2017,1,26,stim.wav,0,11,1926,-7.605940078999177,1,2.1278479561972627
6,19-May-2017,1,26,stim.wav,0,12,2226,-1.4919041430202096,1,2.1278479561972627
6,19-May-2017,1,26,stim.wav,0,13,2560,-1.2296760581739026,1,2.1278479561972627
6,19-May-2017,1,26,stim.wav,0,14,2932,3.3332451592946515,1,2.1278479561972627
6,19-May-2017,1,26,stim.wav,0,15,3346,5.07564495857223,1,2.1278479561972627
6,19-May-2017,1,26,stim.wav,0,16,3808,0.2974480114382737,1,2.1278479561972627
6,19-May-2017,1,26,stim.wav,0,17,4322,-1.0632854132492868,1,2.1278479561972627
6,19-May-2017,1,26,stim.wav,0,18,4895,1.0786595818570601,1,2.1278479561972627
6,19-May-2017,1,26,stim.wav,0,19,5534,5.1366806224722765,1,2.1278479561972627
6,19-May-2017,1,26,stim.wav,0,20,6245,-1.2854231055357173,1,2.1278479561972627
6,19-May-2017,1,26,stim.wav,0,21,7037,0.8491436606645906,1,2.1278479561972627
6,19-May-2017,1,26,stim.wav,0,22,7920,-4.019165805020725,1,2.1278479561972627
6,19-May-2017,1,26,stim.wav,0,23,8904,-5.130101980700824,1,2.1278479561972627
6,19-May-2017,1,26,stim.wav,0,24,10000,-5.250058686218193,1,2.1278479561972627
6,19-May-2017,1,26,stim.wav,1,0,100,2.96255934564749,0,2.1278479561972627
6,19-May-2017,1,26,stim.wav,1,1,191,-1.89351261315046,0,2.1278479561972627
6,19-May-2017,1,26,stim.wav,1,2,293,-5.145373577752474,0,2.1278479561972627
6,19-May-2017,1,26,stim.wav,1,3,406,6.36572191890602,0,2.1278479561972627
6,19-May-2017,1,26,stim.wav,1,4,533,4.327856731838253,0,2.1278479561972627
6,19-May-2017,1,26,stim.wav,1,5,673,4.271452696997107,0,2.1278479561972627
6,19-May-2017,1,26,stim.wav,1,6,830,3.1161769053786363,0,2.1278479561972627
6,19-May-2017,1,26,stim.wav,1,7,1004,-5.925199491443878,0,2.1278479561972627
6,19-May-2017,1,26,stim.wav,1,8,1199,2.5862094797750466,0,2.1278479561972627
6,19-May-2017,1,26,stim.wav,1,9,1416,-2.1839715286731956,0,2.1278479561972627
6,19-May-2017,1,26,stim.wav,1,10,1657,7.4092741150260855,0,2.1278479561972627
6,19-May-2017,1,26,stim.wav,1,11,1926,2.633237474802275,0,2.1278479561972627
6,19-May-2017,1,26,stim.wav,1,12,2226,4.889384680271308,0,2.1278479561972627
6,19-May-2017,1,26,stim.wav,1,13,2560,-5.122256864748424,0,2.1278479561972627
6,19-May-2017,1,26,stim.wav,1,14,2932,1.6672447253706117,0,2.1278479561972627
6,19-May-2017,1,26,stim.wav,1,15,3346,8.140113872812824,0,2.1278479561972627
6,19-May-2017,1,26,stim.wav,1,16,3808,-2.633410458674797,0,2.1278479561972627
6,19-May-2017,1,26,stim.wav,1,17,4322,-3.1105040373136545,0,2.1278479561972627
6,19-May-2017,1,26,stim.wav,1,18,4895,7.927268664060567,0,2.1278479561972627
6,19-May-2017,1,26,stim.wav,1,19,5534,0.8951570444657707,0,2.1278479561972627
6,19-May-2017,1,26,stim.wav,1,20,6245,-6.850731477996575,0,2.1278479561972627
6,19-May-2017,1,26,stim.wav,1,21,7037,-4.8430643898393075,0,2.1278479561972627
6,19-May-2017,1,26,stim.wav,1,22,7920,-2.047024740431602,0,2.1278479561972627
6,19-May-2017,1,26,stim.wav,1,23,8904,0.05633014548944223,0,2.1278479561972627
6,19-May-2017,1,26,stim.wav,1,24,10000,-9.916325028472404,0,2.1278479561972627
6,19-May-2017,1,27,stim.wav,0,0,100,7.369765014058235,0,0.9814416519420274
6,19-May-2017,1,27,stim.wav,0,1,191,-3.886643199262023,0,0.9814416519420274
6,19-May-2017,1,27,stim.wav,0,2,293,7.900888887894054,0,0.9814416519420274
