subj,date,session,trial,stim,stim_order,filter,filter_freq,filter_gain,response,rt
8,19-May-2017,1,1,stim.wav,0,0,100,4.670909522806768,0,6.882478332041894
8,19-May-2017,1,1,stim.wav,0,1,191,-7.784924061130656,0,6.882478332041894
8,19-May-2017,1,1,stim.wav,0,2,293,-0.36163836262886745,0,6.882478332041894
8,19-May-2017,1,1,stim.wav,0,3,406,-7.977979263464128,0,6.882478332041894
8,19-May-2017,1,1,stim.wav,0,4,533,5.850372765888134,0,6.882478332041894
8,19-May-2017,1,1,stim.wav,0,5,673,1.1787422111743886,0,6.882478332041894
8,19-May-2017,1,1,stim.wav,0,6,830,2.8866829173863935,0,6.882478332041894
8,19-May-2017,1,1,stim.wav,0,7,1004,0.6635577726901252,0,6.882478332041894
8,19-May-2017,1,1,stim.wav,0,8,1199,3.52961529999612,0,6.882478332041894
8,19-May-2017,1,1,stim.wav,0,9,1416,-6.080640992436934,0,6.882478332041894
8,19-May-2017,1,1,stim.wav,0,10,1657,-11.759273549166041,0,6.882478332041894
8,19-May-2017,1,1,stim.wav,0,11,1926,-3.7276771910868742,0,6.882478332041894
8,19-May-2017,1,1,stim.wav,0,12,2226,-3.6949212333077766,0,6.882478332041894
8,19-May-2017,1,1,stim.wav,0,13,2560,-2.073031057880394,0,6.882478332041894
8,19-May-2017,1,1,stim.wav,0,14,2932,-7.067392909419158,0,6.882478332041894
8,19-May-2017,1,1,stim.wav,0,15,3346,-1.9288922454669661,0,6.882478332041894
8,19-May-2017,1,1,stim.wav,0,16,3808,-4.408726453811261,0,6.882478332041894
8,19-May-2017,1,1,stim.wav,0,17,4322,-1.630409379607828,0,6.882478332041894
8,19-May-2017,1,1,stim.wav,0,18,4895,-3.128909055122397,0,6.882478332041894
8,19-May-2017,1,1,stim.wav,0,19,5534,6.546418718702704,0,6.882478332041894
8,19-May-2017,1,1,stim.wav,0,20,6245,-1.3252038734528093,0,6.882478332041894
8,19-May-2017,1,1,stim.wav,0,21,7037,-2.6674932378471654,0,6.882478332041894
8,19-May-2017,1,1,stim.wav,0,22,7920,2.7926571092113326,0,6.882478332041894
8,19-May-2017,1,1,stim.wav,0,23,8904,1.6179435143016854,0,6.882478332041894
8,19-May-2017,1,1,stim.wav,0,24,10000,-1.5656810691574004,0,6.882478332041894
8,19-May-2017,1,1,stim.wav,1,0,100,3.5849385781330048,1,6.882478332041894
8,19-May-2017,1,1,stim.wav,1,1,191,0.7734770617238793,1,6.882478332041894
8,19-May-2017,1,1,stim.wav,1,2,293,-5.001219665690862,1,6.882478332041894
8,19-May-2017,1,1,stim.wav,1,3,406,5.588179526053853,1,6.882478332041894
8,19-May-2017,1,1,stim.wav,1,4,533,-9.833444652349868,1,6.882478332041894
8,19-May-2017,1,1,stim.wav,1,5,673,3.9265403882870413,1,6.882478332041894
8,19-May-2017,1,1,stim.wav,1,6,830,-1.8289534280699369,1,6.882478332041894
8,19-May-2017,1,1,stim.wav,1,7,1004,0.07499487173701999,1,6.882478332041894
8,19-May-2017,1,1,stim.wav,1,8,1199,-8.971517983169463,1,6.882478332041894
8,19-May-2017,1,1,stim.wav,1,9,1416,-2.826003182899029,1,6.882478332041894
8,19-May-2017,1,1,stim.wav,1,10,1657,-3.1279784412889255,1,6.882478332041894
8,19-May-2017,1,1,stim.wav,1,11,1926,0.31518141780837317,1,6.882478332041894
8,19-May-2017,1,1,stim.wav,1,12,2226,-2.6264148203360964,1,6.882478332041894
8,19-May-2017,1,1,stim.wav,1,13,2560,-9.502328454137443,1,6.882478332041894
8,19-May-2017,1,1,stim.wav,1,14,2932,-5.833425223824972,1,6.882478332041894
8,19-May-2017,1,1,stim.wav,1,15,3346,-0.5231131058638173,1,6.882478332041894
8,19-May-2017,1,1,stim.wav,1,16,3808,-6.774377613719375,1,6.882478332041894
8,19-May-2017,1,1,stim.wav,1,17,4322,-2.054999347347208,1,6.882478332041894
8,19-May-2017,1,1,stim.wav,1,18,4895,-1.6755833613984787,1,6.882478332041894
8,19-May-2017,1,1,stim.wav,1,19,5534,5.982109562256737,1,6.882478332041894
8,19-May-2017,1,1,stim.wav,1,20,6245,-2.9768613726806237,1,6.882478332041894
8,19-May-2017,1,1,stim.wav,1,21,7037,1.768593813369904,1,6.882478332041894
8,19-May-2017,1,1,stim.wav,1,22,7920,-0.648887239901435,1,6.882478332041894
8,19-May-2017,1,1,stim.wav,1,23,8904,-3.276312073291062,1,6.882478332041894
8,19-May-2017,1,1,stim.wav,1,24,10000,3.569630306028348,1,6.882478332041894
8,19-May-2017,1,2,stim.wav,0,0,100,-3.42871479514699,0,2.3956741056996096
8,19-May-2017,1,2,stim.wav,0,1,191,2.5815766213093925,0,2.3956741056996096
8,19-May-2017,1,2,stim.wav,0,2,293,-1.1551710817585121,0,2.3956741056996096
8,19-May-2017,1,2,stim.wav,0,3,406,7.065604615352946,0,2.3956741056996096
8,19-May-2017,1,2,stim.wav,0,4,533,-4.920978768160272,0,2.3956741056996096
8,19-May-2017,1,2,stim.wav,0,5,673,-9.870171157755529,0,2.3956741056996096
8,19-May-2017,1,2,stim.wav,0,6,830,4.369755428112998,0,2.3956741056996096
8,19-May-2017,1,2,stim.wav,0,7,1004,-1.5247286410867402,0,2.3956741056996096
8,19-May-2017,1,2,stim.wav,0,8,1199,-7.857519258379426,0,2.3956741056996096
8,19-May-2017,1,2,stim.wav,0,9,1416,-4.263169994254092,0,2.3956741056996096
8,19-May-2017,1,2,stim.wav,0,10,1657,0.3993961046018729,0,2.3956741056996096
8,19-May-2017,1,2,stim.wav,0,11,1926,2.921655213281978,0,2.3956741056996096
8,19-May-2017,1,2,stim.wav,0,12,2226,-3.5987685387323918,0,2.3956741056996096
8,19-May-2017,1,2,stim.wav,0,13,2560,-2.3275503045854373,0,2.3956741056996096
8,19-May-2017,1,2,stim.wav,0,14,2932,1.753461078308161,0,2.3956741056996096
8,19-May-2017,1,2,stim.wav,0,15,3346,-10.424257700413758,0,2.3956741056996096
8,19-May-2017,1,2,stim.wav,0,16,3808,2.8708435831709957,0,2.3956741056996096
8,19-May-2017,1,2,stim.wav,0,17,4322,5.092636806851867,0,2.3956741056996096
8,19-May-2017,1,2,stim.wav,0,18,4895,0.8956279480814366,0,2.3956741056996096
8,19-May-2017,1,2,stim.wav,0,19,5534,2.0427509697334427,0,2.3956741056996096
8,19-May-2017,1,2,stim.wav,0,20,6245,6.877057883860795,0,2.3956741056996096
8,19-May-2017,1,2,stim.wav,0,21,7037,-0.0012751052756781742,0,2.3956741056996096
8,19-May-2017,1,2,stim.wav,0,22,7920,1.4230208081015074,0,2.3956741056996096
8,19-May-2017,1,2,stim.wav,0,23,8904,-1.2175968224033882,0,2.3956741056996096
8,19-May-2017,1,2,stim.wav,0,24,10000,-3.2562841684931403,0,2.3956741056996096
8,19-May-2017,1,2,stim.wav,1,0,100,1.6853670701941805,1,2.3956741056996096
8,19-May-2017,1,2,stim.wav,1,1,191,-9.471556729260316,1,2.3956741056996096
8,19-May-2017,1,2,stim.wav,1,2,293,6.349553664251616,1,2.3956741056996096
8,19-May-2017,1,2,stim.wav,1,3,406,-0.0023417157091622834,1,2.3956741056996096
8,19-May-2017,1,2,stim.wav,1,4,533,0.7610107672315878,1,2.3956741056996096
8,19-May-2017,1,2,stim.wav,1,5,673,2.2409892917934497,1,2.3956741056996096
8,19-May-2017,1,2,stim.wav,1,6,830,0.0667217911361384,1,2.3956741056996096
8,19-May-2017,1,2,stim.wav,1,7,1004,-6.608537643066099,1,2.3956741056996096
8,19-May-2017,1,2,stim.wav,1,8,1199,11.376597190402505,1,2.3956741056996096
8,19-May-2017,1,2,stim.wav,1,9,1416,-3.409035854926254,1,2.3956741056996096
8,19-May-2017,1,2,stim.wav,1,10,1657,1.5227196167006907,1,2.3956741056996096
8,19-May-2017,1,2,stim.wav,1,11,1926,2.0661071859292175,1,2.3956741056996096
8,19-May-2017,1,2,stim.wav,1,12,2226,-2.0398315148171804,1,2.3956741056996096
8,19-May-2017,1,2,stim.wav,1,13,2560,-4.204443220616171,1,2.3956741056996096
8,19-May-2017,1,2,stim.wav,1,14,2932,-0.22933679770450913,1,2.3956741056996096
8,19-May-2017,1,2,stim.wav,1,15,3346,-5.932863822783761,1,2.3956741056996096
8,19-May-2017,1,2,stim.wav,1,16,3808,5.669903807111653,1,2.3956741056996096
8,19-May-2017,1,2,stim.wav,1,17,4322,-4.6103260567017585,1,2.3956741056996096
8,19-May-2017,1,2,stim.wav,1,18,4895,4.505158786043895,1,2.3956741056996096
8,19-May-2017,1,2,stim.wav,1,19,5534,8.305582517915566,1,2.3956741056996096
8,19-May-2017,1,2,stim.wav,1,20,6245,4.011711070849594,1,2.3956741056996096
8,19-May-2017,1,2,stim.wav,1,21,7037,3.2138296554218404,1,2.3956741056996096
8,19-May-2017,1,2,stim.wav,1,22,7920,-6.353239618860967,1,2.3956741056996096
8,19-May-2017,1,2,stim.wav,1,23,8904,6.06439784430587,1,2.3956741056996096
8,19-May-2017,1,2,stim.wav,1,24,10000,4.729562413003142,1,2.3956741056996096
8,19-May-2017,1,3,stim.wav,0,0,100,4.5804753552860085,0,3.8688294427652883
8,19-May-2017,1,3,stim.wav,0,1,191,-1.2666998991603768,0,3.8688294427652883
8,19-May-2017,1,3,stim.wav,0,2,293,-0.7151321189622399,0,3.8688294427652883
8,19-May-2017,1,3,stim.wav,0,3,406,1.1961054122258878,0,3.8688294427652883
8,19-May-2017,1,3,stim.wav,0,4,533,8.188863037167621,0,3.8688294427652883
8,19-May-2017,1,3,stim.wav,0,5,673,1.4756274992875489,0,3.8688294427652883
8,19-May-2017,1,3,stim.wav,0,6,830,-3.773099175506602,0,3.8688294427652883
8,19-May-2017,1,3,stim.wav,0,7,1004,-2.2203286607835624,0,3.8688294427652883
8,19-May-2017,1,3,stim.wav,0,8,1199,9.05734715452169,0,3.8688294427652883
8,19-May-2017,1,3,stim.wav,0,9,1416,9.10696682868198,0,3.8688294427652883
8,19-May-2017,1,3,stim.wav,0,10,1657,-1.8711483041030688,0,3.8688294427652883
8,19-May-2017,1,3,stim.wav,0,11,1926,-1.2221829641005597,0,3.8688294427652883
8,19-May-2017,1,3,stim.wav,0,12,2226,3.7122341728802017,0,3.8688294427652883
8,19-May-2017,1,3,stim.wav,0,13,2560,9.299667051528992,0,3.8688294427652883
8,19-May-2017,1,3,stim.wav,0,14,2932,-7.2912781512810545,0,3.8688294427652883
8,19-May-2017,1,3,stim.wav,0,15,3346,-4.901365832059787,0,3.8688294427652883
8,19-May-2017,1,3,stim.wav,0,16,3808,1.8986546578383487,0,3.8688294427652883
8,19-May-2017,1,3,stim.wav,0,17,4322,-2.3600863664697225,0,3.8688294427652883
8,19-May-2017,1,3,stim.wav,0,18,4895,2.76599629895312,0,3.8688294427652883
8,19-May-2017,1,3,stim.wav,0,19,5534,-4.574013253647155,0,3.8688294427652883
8,19-May-2017,1,3,stim.wav,0,20,6245,-2.924550651903531,0,3.8688294427652883
8,19-May-2017,1,3,stim.wav,0,21,7037,-3.726478757896956,0,3.8688294427652883
8,19-May-2017,1,3,stim.wav,0,22,7920,7.51016275195024,0,3.8688294427652883
8,19-May-2017,1,3,stim.wav,0,23,8904,-8.58692349392896,0,3.8688294427652883
8,19-May-2017,1,3,stim.wav,0,24,10000,-3.5398242350983633,0,3.8688294427652883
8,19-May-2017,1,3,stim.wav,1,0,100,-0.6587832767486299,1,3.8688294427652883
8,19-May-2017,1,3,stim.wav,1,1,191,-6.121041557338848,1,3.8688294427652883
8,19-May-2017,1,3,stim.wav,1,2,293,9.964622969577395,1,3.8688294427652883
8,19-May-2017,1,3,stim.wav,1,3,406,4.669960216603931,1,3.8688294427652883
8,19-May-2017,1,3,stim.wav,1,4,533,3.3179354537130683,1,3.8688294427652883
8,19-May-2017,1,3,stim.wav,1,5,673,1.2359495534988814,1,3.8688294427652883
8,19-May-2017,1,3,stim.wav,1,6,830,-4.883849234192386,1,3.8688294427652883
8,19-May-2017,1,3,stim.wav,1,7,1004,2.221280796194107,1,3.8688294427652883
8,19-May-2017,1,3,stim.wav,1,8,1199,6.997441543787069,1,3.8688294427652883
8,19-May-2017,1,3,stim.wav,1,9,1416,-1.4890635697103527,1,3.8688294427652883
8,19-May-2017,1,3,stim.wav,1,10,1657,2.8823145839276214,1,3.8688294427652883
8,19-May-2017,1,3,stim.wav,1,11,1926,5.944803790493051,1,3.8688294427652883
8,19-May-2017,1,3,stim.wav,1,12,2226,-3.084038750570532,1,3.8688294427652883
8,19-May-2017,1,3,stim.wav,1,13,2560,-2.7724514154088737,1,3.8688294427652883
8,19-May-2017,1,3,stim.wav,1,14,2932,2.7442556817425032,1,3.8688294427652883
8,19-May-2017,1,3,stim.wav,1,15,3346,-3.9284288911049097,1,3.8688294427652883
8,19-May-2017,1,3,stim.wav,1,16,3808,-1.167596974499137,1,3.8688294427652883
8,19-May-2017,1,3,stim.wav,1,17,4322,-0.9078334655346683,1,3.8688294427652883
8,19-May-2017,1,3,stim.wav,1,18,4895,2.654848675267816,1,3.8688294427652883
8,19-May-2017,1,3,stim.wav,1,19,5534,0.7386222192810548,1,3.8688294427652883
8,19-May-2017,1,3,stim.wav,1,20,6245,8.628948861253967,1,3.8688294427652883
8,19-May-2017,1,3,stim.wav,1,21,7037,-1.268849166416777,1,3.8688294427652883
8,19-May-2017,1,3,stim.wav,1,22,7920,2.3426042287381375,1,3.8688294427652883
8,19-May-2017,1,3,stim.wav,1,23,8904,-0.08031814443570146,1,3.8688294427652883
8,19-May-2017,1,3,stim.wav,1,24,10000,-2.201172335646909,1,3.8688294427652883
8,19-May-2017,1,4,stim.wav,0,0,100,2.4128806365638833,1,1.475761478843486
8,19-May-2017,1,4,stim.wav,0,1,191,0.14158918861878356,1,1.475761478843486
8,19-May-2017,1,4,stim.wav,0,2,293,-5.213312669101794,1,1.475761478843486
8,19-May-2017,1,4,stim.wav,0,3,406,-1.5008561354401362,1,1.475761478843486
8,19-May-2017,1,4,stim.wav,0,4,533,-2.428437701990809,1,1.475761478843486
8,19-May-2017,1,4,stim.wav,0,5,673,1.3981681729315152,1,1.475761478843486
8,19-May-2017,1,4,stim.wav,0,6,830,-1.6362200406614382,1,1.475761478843486
8,19-May-2017,1,4,stim.wav,0,7,1004,0.8362131230391162,1,1.475761478843486
8,19-May-2017,1,4,stim.wav,0,8,1199,0.8376235968166938,1,1.475761478843486
8,19-May-2017,1,4,stim.wav,0,9,1416,-6.324898123388486,1,1.475761478843486
8,19-May-2017,1,4,stim.wav,0,10,1657,2.2711948295358173,1,1.475761478843486
8,19-May-2017,1,4,stim.wav,0,11,1926,4.100024017762075,1,1.475761478843486
8,19-May-2017,1,4,stim.wav,0,12,2226,7.558785761613951,1,1.475761478843486
8,19-May-2017,1,4,stim.wav,0,13,2560,-0.9763214370086372,1,1.475761478843486
8,19-May-2017,1,4,stim.wav,0,14,2932,2.167601366506895,1,1.475761478843486
8,19-May-2017,1,4,stim.wav,0,15,3346,4.332999188098804,1,1.475761478843486
8,19-May-2017,1,4,stim.wav,0,16,3808,7.737391584089076,1,1.475761478843486
8,19-May-2017,1,4,stim.wav,0,17,4322,-4.51899035822715,1,1.475761478843486
8,19-May-2017,1,4,stim.wav,0,18,4895,2.375028346516584,1,1.475761478843486
8,19-May-2017,1,4,stim.wav,0,19,5534,-0.9791835524785785,1,1.475761478843486
8,19-May-2017,1,4,stim.wav,0,20,6245,2.524635205009496,1,1.475761478843486
8,19-May-2017,1,4,stim.wav,0,21,7037,3.3744890119272326,1,1.475761478843486
8,19-May-2017,1,4,stim.wav,0,22,7920,-4.581592380923763,1,1.475761478843486
8,19-May-2017,1,4,stim.wav,0,23,8904,-4.935091353723898,1,1.475761478843486
8,19-May-2017,1,4,stim.wav,0,24,10000,3.6996942350345883,1,1.475761478843486
8,19-May-2017,1,4,stim.wav,1,0,100,-1.7351607270514058,0,1.475761478843486
8,19-May-2017,1,4,stim.wav,1,1,191,9.901057602194802,0,1.475761478843486
8,19-May-2017,1,4,stim.wav,1,2,293,-8.772232503507954,0,1.475761478843486
8,19-May-2017,1,4,stim.wav,1,3,406,0.4657556491108743,0,1.475761478843486
8,19-May-2017,1,4,stim.wav,1,4,533,3.034859510909606,0,1.475761478843486
8,19-May-2017,1,4,stim.wav,1,5,673,1.5590693809416225,0,1.475761478843486
8,19-May-2017,1,4,stim.wav,1,6,830,-3.7307754354145493,0,1.475761478843486
8,19-May-2017,1,4,stim.wav,1,7,1004,-5.596237062937888,0,1.475761478843486
8,19-May-2017,1,4,stim.wav,1,8,1199,-2.6249351186754986,0,1.475761478843486
8,19-May-2017,1,4,stim.wav,1,9,1416,-3.3523796860177395,0,1.475761478843486
8,19-May-2017,1,4,stim.wav,1,10,1657,0.035230362415089124,0,1.475761478843486
8,19-May-2017,1,4,stim.wav,1,11,1926,6.129095636210216,0,1.475761478843486
8,19-May-2017,1,4,stim.wav,1,12,2226,11.375134324602026,0,1.475761478843486
8,19-May-2017,1,4,stim.wav,1,13,2560,-1.2531066126160417,0,1.475761478843486
8,19-May-2017,1,4,stim.wav,1,14,2932,-1.4993636200165796,0,1.475761478843486
8,19-May-2017,1,4,stim.wav,1,15,3346,0.18584513094817737,0,1.475761478843486
8,19-May-2017,1,4,stim.wav,1,16,3808,9.030235651030273,0,1.475761478843486
8,19-May-2017,1,4,stim.wav,1,17,4322,0.8576181597526247,0,1.475761478843486
8,19-May-2017,1,4,stim.wav,1,18,4895,-2.3283502176646866,0,1.475761478843486
8,19-May-2017,1,4,stim.wav,1,19,5534,-1.953812666376171,0,1.475761478843486
8,19-May-2017,1,4,stim.wav,1,20,6245,9.900199930399415,0,1.475761478843486
8,19-May-2017,1,4,stim.wav,1,21,7037,1.8013964954099642,0,1.475761478843486
8,19-May-2017,1,4,stim.wav,1,22,7920,5.929001939452945,0,1.475761478843486
8,19-May-2017,1,4,stim.wav,1,23,8904,-0.6235514991672575,0,1.475761478843486
8,19-May-2017,1,4,stim.wav,1,24,10000,1.4614703109155966,0,1.475761478843486
8,19-May-2017,1,5,stim.wav,0,0,100,0.5084178215495194,0,4.4571274625012185
8,19-May-2017,1,5,stim.wav,0,1,191,-5.5496006293047175,0,4.4571274625012185
8,19-May-2017,1,5,stim.wav,0,2,293,0.9565052941398156,0,4.4571274625012185
8,19-May-2017,1,5,stim.wav,0,3,406,5.78949711768744,0,4.4571274625012185
8,19-May-2017,1,5,stim.wav,0,4,533,5.306480817081769,0,4.4571274625012185
8,19-May-2017,1,5,stim.wav,0,5,673,-6.177354000112114,0,4.4571274625012185
8,19-May-2017,1,5,stim.wav,0,6,830,-2.851577107756857,0,4.4571274625012185
8,19-May-2017,1,5,stim.wav,0,7,1004,-3.5262229177525155,0,4.4571274625012185
8,19-May-2017,1,5,stim.wav,0,8,1199,-0.21356258722722676,0,4.4571274625012185
8,19-May-2017,1,5,stim.wav,0,9,1416,-0.9931158489377605,0,4.4571274625012185
8,19-May-2017,1,5,stim.wav,0,10,1657,-2.262150798259897,0,4.4571274625012185
8,19-May-2017,1,5,stim.wav,0,11,1926,-6.828956632277601,0,4.4571274625012185
8,19-May-2017,1,5,stim.wav,0,12,2226,-2.6279090832794214,0,4.4571274625012185
8,19-May-2017,1,5,stim.wav,0,13,2560,-6.508308958855469,0,4.4571274625012185
8,19-May-2017,1,5,stim.wav,0,14,2932,-6.227565021932024,0,4.4571274625012185
8,19-May-2017,1,5,stim.wav,0,15,3346,-0.5450400664434882,0,4.4571274625012185
8,19-May-2017,1,5,stim.wav,0,16,3808,0.02524452305415297,0,4.4571274625012185
8,19-May-2017,1,5,stim.wav,0,17,4322,-4.480233217529462,0,4.4571274625012185
8,19-May-2017,1,5,stim.wav,0,18,4895,-11.211861944257038,0,4.4571274625012185
8,19-May-2017,1,5,stim.wav,0,19,5534,2.0661845094515003,0,4.4571274625012185
8,19-May-2017,1,5,stim.wav,0,20,6245,5.577678937485193,0,4.4571274625012185
8,19-May-2017,1,5,stim.wav,0,21,7037,-0.9257410463762429,0,4.4571274625012185
8,19-May-2017,1,5,stim.wav,0,22,7920,2.9732277247440084,0,4.4571274625012185
8,19-May-2017,1,5,stim.wav,0,23,8904,-0.3768608781364726,0,4.4571274625012185
8,19-May-2017,1,5,stim.wav,0,24,10000,-8.461647147144172,0,4.4571274625012185
8,19-May-2017,1,5,stim.wav,1,0,100,4.5956275326472165,1,4.4571274625012185
8,19-May-2017,1,5,stim.wav,1,1,191,5.872994839188853,1,4.4571274625012185
8,19-May-2017,1,5,stim.wav,1,2,293,3.8136107154264227,1,4.4571274625012185
8,19-May-2017,1,5,stim.wav,1,3,406,6.823923780849459,1,4.4571274625012185
8,19-May-2017,1,5,stim.wav,1,4,533,1.0376642908257236,1,4.4571274625012185
8,19-May-2017,1,5,stim.wav,1,5,673,2.8973610909970033,1,4.4571274625012185
8,19-May-2017,1,5,stim.wav,1,6,830,-4.950756822684518,1,4.4571274625012185
8,19-May-2017,1,5,stim.wav,1,7,1004,1.5175571512183526,1,4.4571274625012185
8,19-May-2017,1,5,stim.wav,1,8,1199,-1.6607708099408838,1,4.4571274625012185
8,19-May-2017,1,5,stim.wav,1,9,1416,-2.1717443823704308,1,4.4571274625012185
8,19-May-2017,1,5,stim.wav,1,10,1657,-3.411071317104449,1,4.4571274625012185
8,19-May-2017,1,5,stim.wav,1,11,1926,2.938059244479846,1,4.4571274625012185
8,19-May-2017,1,5,stim.wav,1,12,2226,-6.167219840976519,1,4.4571274625012185
8,19-May-2017,1,5,stim.wav,1,13,2560,-3.3393620734465133,1,4.4571274625012185
8,19-May-2017,1,5,stim.wav,1,14,2932,2.4808503325523192,1,4.4571274625012185
8,19-May-2017,1,5,stim.wav,1,15,3346,-4.2584322053739,1,4.4571274625012185
8,19-May-2017,1,5,stim.wav,1,16,3808,5.534329164493918,1,4.4571274625012185
8,19-May-2017,1,5,stim.wav,1,17,4322,-6.6499752515114565,1,4.4571274625012185
8,19-May-2017,1,5,stim.wav,1,18,4895,-5.154295774754774,1,4.4571274625012185
8,19-May-2017,1,5,stim.wav,1,19,5534,-5.613557146374645,1,4.4571274625012185
8,19-May-2017,1,5,stim.wav,1,20,6245,10.430688480400942,1,4.4571274625012185
8,19-May-2017,1,5,stim.wav,1,21,7037,-4.603316007713822,1,4.4571274625012185
8,19-May-2017,1,5,stim.wav,1,22,7920,-6.589767899729594,1,4.4571274625012185
8,19-May-2017,1,5,stim.wav,1,23,8904,3.2427842063475443,1,4.4571274625012185
8,19-May-2017,1,5,stim.wav,1,24,10000,-3.6210796118131077,1,4.4571274625012185
8,19-May-2017,1,6,stim.wav,0,0,100,-0.3359623692561948,1,1.7633303057204779
8,19-May-2017,1,6,stim.wav,0,1,191,7.0674613466494165,1,1.7633303057204779
8,19-May-2017,1,6,stim.wav,0,2,293,-8.997602075999916,1,1.7633303057204779
8,19-May-2017,1,6,stim.wav,0,3,406,-6.835458127051657,1,1.7633303057204779
8,19-May-2017,1,6,stim.wav,0,4,533,5.287858917372877,1,1.7633303057204779
8,19-May-2017,1,6,stim.wav,0,5,673,-3.174092019061848,1,1.7633303057204779
8,19-May-2017,1,6,stim.wav,0,6,830,-1.6451887866846042,1,1.7633303057204779
8,19-May-2017,1,6,stim.wav,0,7,1004,2.1445976647866463,1,1.7633303057204779
8,19-May-2017,1,6,stim.wav,0,8,1199,-3.6629915144172474,1,1.7633303057204779
8,19-May-2017,1,6,stim.wav,0,9,1416,0.8684526368142599,1,1.7633303057204779
8,19-May-2017,1,6,stim.wav,0,10,1657,-4.259807985187837,1,1.7633303057204779
8,19-May-2017,1,6,stim.wav,0,11,1926,0.46703942943019405,1,1.7633303057204779
8,19-May-2017,1,6,stim.wav,0,12,2226,-4.661679058485659,1,1.7633303057204779
8,19-May-2017,1,6,stim.wav,0,13,2560,-5.849965086222618,1,1.7633303057204779
8,19-May-2017,1,6,stim.wav,0,14,2932,-5.331955214501485,1,1.7633303057204779
8,19-May-2017,1,6,stim.wav,0,15,3346,-4.384526927324611,1,1.7633303057204779
8,19-May-2017,1,6,stim.wav,0,16,3808,7.419685875870776,1,1.7633303057204779
8,19-May-2017,1,6,stim.wav,0,17,4322,-2.4672897557951985,1,1.7633303057204779
8,19-May-2017,1,6,stim.wav,0,18,4895,-9.206254132193383,1,1.7633303057204779
8,19-May-2017,1,6,stim.wav,0,19,5534,-5.816027953507482,1,1.7633303057204779
8,19-May-2017,1,6,stim.wav,0,20,6245,10.15959688997504,1,1.7633303057204779
8,19-May-2017,1,6,stim.wav,0,21,7037,-10.147025263375301,1,1.7633303057204779
8,19-May-2017,1,6,stim.wav,0,22,7920,2.5295920844178514,1,1.7633303057204779
8,19-May-2017,1,6,stim.wav,0,23,8904,-6.571058994358221,1,1.7633303057204779
8,19-May-2017,1,6,stim.wav,0,24,10000,-1.5154299937319873,1,1.7633303057204779
8,19-May-2017,1,6,stim.wav,1,0,100,6.592696704242929,0,1.7633303057204779
8,19-May-2017,1,6,stim.wav,1,1,191,0.03669705985255644,0,1.7633303057204779
8,19-May-2017,1,6,stim.wav,1,2,293,-0.7162350407536968,0,1.7633303057204779
8,19-May-2017,1,6,stim.wav,1,3,406,-0.10253495651878067,0,1.7633303057204779
8,19-May-2017,1,6,stim.wav,1,4,533,-1.1403576935453068,0,1.7633303057204779
8,19-May-2017,1,6,stim.wav,1,5,673,2.43191268699556,0,1.7633303057204779
8,19-May-2017,1,6,stim.wav,1,6,830,-1.5584210621471717,0,1.7633303057204779
8,19-May-2017,1,6,stim.wav,1,7,1004,3.7099816366635325,0,1.7633303057204779
8,19-May-2017,1,6,stim.wav,1,8,1199,5.277684348576256,0,1.7633303057204779
8,19-May-2017,1,6,stim.wav,1,9,1416,7.736881576758748,0,1.7633303057204779
8,19-May-2017,1,6,stim.wav,1,10,1657,10.719763522401118,0,1.7633303057204779
8,19-May-2017,1,6,stim.wav,1,11,1926,-0.3290957740384868,0,1.7633303057204779
8,19-May-2017,1,6,stim.wav,1,12,2226,-0.6461226751644471,0,1.7633303057204779
8,19-May-2017,1,6,stim.wav,1,13,2560,-0.5222007659168132,0,1.7633303057204779
8,19-May-2017,1,6,stim.wav,1,14,2932,0.27061298134429645,0,1.7633303057204779
8,19-May-2017,1,6,stim.wav,1,15,3346,-8.431872898160218,0,1.7633303057204779
8,19-May-2017,1,6,stim.wav,1,16,3808,-2.940733585864057,0,1.7633303057204779
8,19-May-2017,1,6,stim.wav,1,17,4322,4.296601029647441,0,1.7633303057204779
8,19-May-2017,1,6,stim.wav,1,18,4895,10.544412437066102,0,1.7633303057204779
8,19-May-2017,1,6,stim.wav,1,19,5534,0.20787412813294726,0,1.7633303057204779
8,19-May-2017,1,6,stim.wav,1,20,6245,-9.377633581960191,0,1.7633303057204779
8,19-May-2017,1,6,stim.wav,1,21,7037,2.790289435498756,0,1.7633303057204779
8,19-May-2017,1,6,stim.wav,1,22,7920,-2.084452515323072,0,1.7633303057204779
8,19-May-2017,1,6,stim.wav,1,23,8904,-1.0164373955251942,0,1.7633303057204779
8,19-May-2017,1,6,stim.wav,1,24,10000,2.0652604644174426,0,1.7633303057204779
8,19-May-2017,1,7,stim.wav,0,0,100,-1.332378692091215,1,2.012427923143107
8,19-May-2017,1,7,stim.wav,0,1,191,-5.587443360770622,1,2.012427923143107
8,19-May-2017,1,7,stim.wav,0,2,293,2.062562076013002,1,2.012427923143107
8,19-May-2017,1,7,stim.wav,0,3,406,-1.6937991743320902,1,2.012427923143107
8,19-May-2017,1,7,stim.wav,0,4,533,9.695101245108257,1,2.012427923143107
8,19-May-2017,1,7,stim.wav,0,5,673,2.026781875083697,1,2.012427923143107
8,19-May-2017,1,7,stim.wav,0,6,830,-0.27391164548634295,1,2.012427923143107
8,19-May-2017,1,7,stim.wav,0,7,1004,2.950667650807591,1,2.012427923143107
8,19-May-2017,1,7,stim.wav,0,8,1199,0.5607128643651456,1,2.012427923143107
8,19-May-2017,1,7,stim.wav,0,9,1416,-2.406304456403368,1,2.012427923143107
8,19-May-2017,1,7,stim.wav,0,10,1657,-5.078151151195142,1,2.012427923143107
8,19-May-2017,1,7,stim.wav,0,11,1926,-1.0872176691131354,1,2.012427923143107
8,19-May-2017,1,7,stim.wav,0,12,2226,-0.2937852292555276,1,2.012427923143107
8,19-May-2017,1,7,stim.wav,0,13,2560,2.6709718340434865,1,2.012427923143107
8,19-May-2017,1,7,stim.wav,0,14,2932,-1.8280713482047197,1,2.012427923143107
8,19-May-2017,1,7,stim.wav,0,15,3346,5.1585918726084525,1,2.012427923143107
8,19-May-2017,1,7,stim.wav,0,16,3808,0.10936086574982816,1,2.012427923143107
8,19-May-2017,1,7,stim.wav,0,17,4322,1.0713603736305397,1,2.012427923143107
8,19-May-2017,1,7,stim.wav,0,18,4895,-8.158320800178432,1,2.012427923143107
8,19-May-2017,1,7,stim.wav,0,19,5534,-5.602972850975782,1,2.012427923143107
8,19-May-2017,1,7,stim.wav,0,20,6245,5.285700470453596,1,2.012427923143107
8,19-May-2017,1,7,stim.wav,0,21,7037,3.5813875812547717,1,2.012427923143107
8,19-May-2017,1,7,stim.wav,0,22,7920,3.9464454131639695,1,2.012427923143107
8,19-May-2017,1,7,stim.wav,0,23,8904,1.195859731941979,1,2.012427923143107
8,19-May-2017,1,7,stim.wav,0,24,10000,12.352078859154258,1,2.012427923143107
8,19-May-2017,1,7,stim.wav,1,0,100,-7.403150544792856,0,2.012427923143107
8,19-May-2017,1,7,stim.wav,1,1,191,-5.678332763322653,0,2.012427923143107
8,19-May-2017,1,7,stim.wav,1,2,293,1.7805750620439977,0,2.012427923143107
8,19-May-2017,1,7,stim.wav,1,3,406,-3.7121995043576366,0,2.012427923143107
8,19-May-2017,1,7,stim.wav,1,4,533,-6.399143562098325,0,2.012427923143107
8,19-May-2017,1,7,stim.wav,1,5,673,3.42058795113756,0,2.012427923143107
8,19-May-2017,1,7,stim.wav,1,6,830,2.848968848699621,0,2.012427923143107
8,19-May-2017,1,7,stim.wav,1,7,1004,-2.114411896276626,0,2.012427923143107
8,19-May-2017,1,7,stim.wav,1,8,1199,-2.7866581034835916,0,2.012427923143107
8,19-May-2017,1,7,stim.wav,1,9,1416,6.707808162916786,0,2.012427923143107
8,19-May-2017,1,7,stim.wav,1,10,1657,7.162588126799353,0,2.012427923143107
8,19-May-2017,1,7,stim.wav,1,11,1926,3.9904236323009763,0,2.012427923143107
8,19-May-2017,1,7,stim.wav,1,12,2226,-7.226974377888933,0,2.012427923143107
8,19-May-2017,1,7,stim.wav,1,13,2560,4.2182985526244074,0,2.012427923143107
8,19-May-2017,1,7,stim.wav,1,14,2932,-7.120303887899173,0,2.012427923143107
8,19-May-2017,1,7,stim.wav,1,15,3346,4.213590908856545,0,2.012427923143107
8,19-May-2017,1,7,stim.wav,1,16,3808,-6.869648405121672,0,2.012427923143107
8,19-May-2017,1,7,stim.wav,1,17,4322,4.334232811042741,0,2.012427923143107
8,19-May-2017,1,7,stim.wav,1,18,4895,-5.407832517736847,0,2.012427923143107
8,19-May-2017,1,7,stim.wav,1,19,5534,9.922641137208984,0,2.012427923143107
8,19-May-2017,1,7,stim.wav,1,20,6245,-1.7121162406924648,0,2.012427923143107
8,19-May-2017,1,7,stim.wav,1,21,7037,-4.905169151107889,0,2.012427923143107
8,19-May-2017,1,7,stim.wav,1,22,7920,3.189082167876381,0,2.012427923143107
8,19-May-2017,1,7,stim.wav,1,23,8904,5.840587255406463,0,2.012427923143107
8,19-May-2017,1,7,stim.wav,1,24,10000,1.7756518725824657,0,2.012427923143107
8,19-May-2017,1,8,stim.wav,0,0,100,-4.6200132305988975,1,3.0561531527370818
8,19-May-2017,1,8,stim.wav,0,1,191,-7.790158605192977,1,3.0561531527370818
8,19-May-2017,1,8,stim.wav,0,2,293,-4.622853537204145,1,3.0561531527370818
8,19-May-2017,1,8,stim.wav,0,3,406,-6.712551484596276,1,3.0561531527370818
8,19-May-2017,1,8,stim.wav,0,4,533,5.772051813050359,1,3.0561531527370818
8,19-May-2017,1,8,stim.wav,0,5,673,-11.17081771033705,1,3.0561531527370818
8,19-May-2017,1,8,stim.wav,0,6,830,7.899048100501631,1,3.0561531527370818
8,19-May-2017,1,8,stim.wav,0,7,1004,-7.22971754153611,1,3.0561531527370818
8,19-May-2017,1,8,stim.wav,0,8,1199,-6.243017837808345,1,3.0561531527370818
8,19-May-2017,1,8,stim.wav,0,9,1416,0.736365360540407,1,3.0561531527370818
8,19-May-2017,1,8,stim.wav,0,10,1657,-4.419671587905384,1,3.0561531527370818
8,19-May-2017,1,8,stim.wav,0,11,1926,1.5410249420757762,1,3.0561531527370818
8,19-May-2017,1,8,stim.wav,0,12,2226,-3.4318869505608385,1,3.0561531527370818
8,19-May-2017,1,8,stim.wav,0,13,2560,-3.3395554554416575,1,3.0561531527370818
8,19-May-2017,1,8,stim.wav,0,14,2932,-7.76677999795422,1,3.0561531527370818
8,19-May-2017,1,8,stim.wav,0,15,3346,-3.1944512529925904,1,3.0561531527370818
8,19-May-2017,1,8,stim.wav,0,16,3808,4.467921710221019,1,3.0561531527370818
8,19-May-2017,1,8,stim.wav,0,17,4322,-0.04322304406042094,1,3.0561531527370818
8,19-May-2017,1,8,stim.wav,0,18,4895,5.227316331707397,1,3.0561531527370818
8,19-May-2017,1,8,stim.wav,0,19,5534,-4.30226638926986,1,3.0561531527370818
8,19-May-2017,1,8,stim.wav,0,20,6245,6.10141110259192,1,3.0561531527370818
8,19-May-2017,1,8,stim.wav,0,21,7037,-6.888809021102552,1,3.0561531527370818
8,19-May-2017,1,8,stim.wav,0,22,7920,2.143765096866771,1,3.0561531527370818
8,19-May-2017,1,8,stim.wav,0,23,8904,-4.768436409579595,1,3.0561531527370818
8,19-May-2017,1,8,stim.wav,0,24,10000,0.14680612516636155,1,3.0561531527370818
8,19-May-2017,1,8,stim.wav,1,0,100,11.278604809483719,0,3.0561531527370818
8,19-May-2017,1,8,stim.wav,1,1,191,1.1266911473750771,0,3.0561531527370818
8,19-May-2017,1,8,stim.wav,1,2,293,-2.12684666174554,0,3.0561531527370818
8,19-May-2017,1,8,stim.wav,1,3,406,4.91576020801734,0,3.0561531527370818
8,19-May-2017,1,8,stim.wav,1,4,533,-2.8550691853867516,0,3.0561531527370818
8,19-May-2017,1,8,stim.wav,1,5,673,4.044883355980387,0,3.0561531527370818
8,19-May-2017,1,8,stim.wav,1,6,830,2.652629615633406,0,3.0561531527370818
8,19-May-2017,1,8,stim.wav,1,7,1004,-4.108451678026785,0,3.0561531527370818
8,19-May-2017,1,8,stim.wav,1,8,1199,2.9961605334470507,0,3.0561531527370818
8,19-May-2017,1,8,stim.wav,1,9,1416,3.6277114939926696,0,3.0561531527370818
8,19-May-2017,1,8,stim.wav,1,10,1657,10.18864418493607,0,3.0561531527370818
8,19-May-2017,1,8,stim.wav,1,11,1926,-2.9080164571323834,0,3.0561531527370818
8,19-May-2017,1,8,stim.wav,1,12,2226,1.4399246962720456,0,3.0561531527370818
8,19-May-2017,1,8,stim.wav,1,13,2560,0.10604291625882321,0,3.0561531527370818
8,19-May-2017,1,8,stim.wav,1,14,2932,-3.047962518774903,0,3.0561531527370818
8,19-May-2017,1,8,stim.wav,1,15,3346,-0.22036611174199108,0,3.0561531527370818
8,19-May-2017,1,8,stim.wav,1,16,3808,-6.700941501883353,0,3.0561531527370818
8,19-May-2017,1,8,stim.wav,1,17,4322,-0.2846951532999537,0,3.0561531527370818
8,19-May-2017,1,8,stim.wav,1,18,4895,-4.183907234390117,0,3.0561531527370818
8,19-May-2017,1,8,stim.wav,1,19,5534,-0.35141559793437394,0,3.0561531527370818
8,19-May-2017,1,8,stim.wav,1,20,6245,-3.6725694146867536,0,3.0561531527370818
8,19-May-2017,1,8,stim.wav,1,21,7037,4.053483346690308,0,3.0561531527370818
8,19-May-2017,1,8,stim.wav,1,22,7920,-0.43025724778020225,0,3.0561531527370818
8,19-May-2017,1,8,stim.wav,1,23,8904,1.6457272225796316,0,3.0561531527370818
8,19-May-2017,1,8,stim.wav,1,24,10000,-3.435240812624267,0,3.0561531527370818
8,19-May-2017,1,9,stim.wav,0,0,100,-2.522904667996044,0,3.463617159209673
8,19-May-2017,1,9,stim.wav,0,1,191,3.5306187117797716,0,3.463617159209673
8,19-May-2017,1,9,stim.wav,0,2,293,-5.192851595709253,0,3.463617159209673
8,19-May-2017,1,9,stim.wav,0,3,406,5.653111749497764,0,3.463617159209673
8,19-May-2017,1,9,stim.wav,0,4,533,2.206510828342193,0,3.463617159209673
8,19-May-2017,1,9,stim.wav,0,5,673,0.5108892803242809,0,3.463617159209673
8,19-May-2017,1,9,stim.wav,0,6,830,2.522029558959946,0,3.463617159209673
8,19-May-2017,1,9,stim.wav,0,7,1004,12.093728177213839,0,3.463617159209673
8,19-May-2017,1,9,stim.wav,0,8,1199,-8.930730834409422,0,3.463617159209673
8,19-May-2017,1,9,stim.wav,0,9,1416,-1.6427205392145863,0,3.463617159209673
8,19-May-2017,1,9,stim.wav,0,10,1657,-4.206059736354016,0,3.463617159209673
8,19-May-2017,1,9,stim.wav,0,11,1926,3.6750051121899547,0,3.463617159209673
8,19-May-2017,1,9,stim.wav,0,12,2226,10.659991917533656,0,3.463617159209673
8,19-May-2017,1,9,stim.wav,0,13,2560,2.88315618306745,0,3.463617159209673
8,19-May-2017,1,9,stim.wav,0,14,2932,-3.676425313742415,0,3.463617159209673
8,19-May-2017,1,9,stim.wav,0,15,3346,9.313246005109125,0,3.463617159209673
8,19-May-2017,1,9,stim.wav,0,16,3808,-10.289962301649087,0,3.463617159209673
8,19-May-2017,1,9,stim.wav,0,17,4322,-1.5708706105783308,0,3.463617159209673
8,19-May-2017,1,9,stim.wav,0,18,4895,1.1734368755662588,0,3.463617159209673
8,19-May-2017,1,9,stim.wav,0,19,5534,-5.5797523210040465,0,3.463617159209673
8,19-May-2017,1,9,stim.wav,0,20,6245,0.6792712139390438,0,3.463617159209673
8,19-May-2017,1,9,stim.wav,0,21,7037,3.7581269766942653,0,3.463617159209673
8,19-May-2017,1,9,stim.wav,0,22,7920,7.871909554311345,0,3.463617159209673
8,19-May-2017,1,9,stim.wav,0,23,8904,5.557509872810533,0,3.463617159209673
8,19-May-2017,1,9,stim.wav,0,24,10000,2.0693204024838456,0,3.463617159209673
8,19-May-2017,1,9,stim.wav,1,0,100,2.2269215470338897,1,3.463617159209673
8,19-May-2017,1,9,stim.wav,1,1,191,8.836629723279449,1,3.463617159209673
8,19-May-2017,1,9,stim.wav,1,2,293,-0.9273004313998998,1,3.463617159209673
8,19-May-2017,1,9,stim.wav,1,3,406,2.865227468122413,1,3.463617159209673
8,19-May-2017,1,9,stim.wav,1,4,533,5.55769096463507,1,3.463617159209673
8,19-May-2017,1,9,stim.wav,1,5,673,7.518377066238228,1,3.463617159209673
8,19-May-2017,1,9,stim.wav,1,6,830,-0.7170799794254402,1,3.463617159209673
8,19-May-2017,1,9,stim.wav,1,7,1004,-4.475373425768311,1,3.463617159209673
8,19-May-2017,1,9,stim.wav,1,8,1199,2.3714845130652997,1,3.463617159209673
8,19-May-2017,1,9,stim.wav,1,9,1416,3.2981292538366436,1,3.463617159209673
8,19-May-2017,1,9,stim.wav,1,10,1657,-6.377315543619072,1,3.463617159209673
8,19-May-2017,1,9,stim.wav,1,11,1926,1.6511666710196502,1,3.463617159209673
8,19-May-2017,1,9,stim.wav,1,12,2226,0.058114845376822453,1,3.463617159209673
8,19-May-2017,1,9,stim.wav,1,13,2560,-2.2555029313482162,1,3.463617159209673
8,19-May-2017,1,9,stim.wav,1,14,2932,0.8958923884596482,1,3.463617159209673
8,19-May-2017,1,9,stim.wav,1,15,3346,-3.9250934819327643,1,3.463617159209673
8,19-May-2017,1,9,stim.wav,1,16,3808,-3.039995856990153,1,3.463617159209673
8,19-May-2017,1,9,stim.wav,1,17,4322,-3.8258508152640447,1,3.463617159209673
8,19-May-2017,1,9,stim.wav,1,18,4895,-10.348244409220577,1,3.463617159209673
8,19-May-2017,1,9,stim.wav,1,19,5534,4.854167766123086,1,3.463617159209673
8,19-May-2017,1,9,stim.wav,1,20,6245,0.48372416484282943,1,3.463617159209673
8,19-May-2017,1,9,stim.wav,1,21,7037,-2.7744807377987986,1,3.463617159209673
8,19-May-2017,1,9,stim.wav,1,22,7920,-1.8339523791310965,1,3.463617159209673
8,19-May-2017,1,9,stim.wav,1,23,8904,-0.09775316663819006,1,3.463617159209673
8,19-May-2017,1,9,stim.wav,1,24,10000,-8.245303893085422,1,3.463617159209673
8,19-May-2017,1,10,stim.wav,0,0,100,-2.0987635946110452,0,4.503122546478989
8,19-May-2017,1,10,stim.wav,0,1,191,1.2507643221031857,0,4.503122546478989
8,19-May-2017,1,10,stim.wav,0,2,293,-6.0823848629306,0,4.503122546478989
8,19-May-2017,1,10,stim.wav,0,3,406,-1.9618001879035694,0,4.503122546478989
8,19-May-2017,1,10,stim.wav,0,4,533,-1.8061305145122857,0,4.503122546478989
8,19-May-2017,1,10,stim.wav,0,5,673,1.1969735882188428,0,4.503122546478989
8,19-May-2017,1,10,stim.wav,0,6,830,6.997221627091727,0,4.503122546478989
8,19-May-2017,1,10,stim.wav,0,7,1004,-2.3516587911969506,0,4.503122546478989
8,19-May-2017,1,10,stim.wav,0,8,1199,-2.529573214142322,0,4.503122546478989
8,19-May-2017,1,10,stim.wav,0,9,1416,9.05772857803037,0,4.503122546478989
8,19-May-2017,1,10,stim.wav,0,10,1657,-7.135173406906316,0,4.503122546478989
8,19-May-2017,1,10,stim.wav,0,11,1926,-3.0339379389441783,0,4.503122546478989
8,19-May-2017,1,10,stim.wav,0,12,2226,-4.360708197624553,0,4.503122546478989
8,19-May-2017,1,10,stim.wav,0,13,2560,4.445555812869967,0,4.503122546478989
8,19-May-2017,1,10,stim.wav,0,14,2932,-4.679653453976659,0,4.503122546478989
8,19-May-2017,1,10,stim.wav,0,15,3346,4.760133492331818,0,4.503122546478989
8,19-May-2017,1,10,stim.wav,0,16,3808,3.5119542137976465,0,4.503122546478989
8,19-May-2017,1,10,stim.wav,0,17,4322,-2.8074557856338975,0,4.503122546478989
8,19-May-2017,1,10,stim.wav,0,18,4895,4.317001400290515,0,4.503122546478989
8,19-May-2017,1,10,stim.wav,0,19,5534,7.165422856272004,0,4.503122546478989
8,19-May-2017,1,10,stim.wav,0,20,6245,-8.524519526432448,0,4.503122546478989
8,19-May-2017,1,10,stim.wav,0,21,7037,3.9667539791348503,0,4.503122546478989
8,19-May-2017,1,10,stim.wav,0,22,7920,1.4157878435933668,0,4.503122546478989
8,19-May-2017,1,10,stim.wav,0,23,8904,1.7183111131109916,0,4.503122546478989
8,19-May-2017,1,10,stim.wav,0,24,10000,-6.88346007723586,0,4.503122546478989
8,19-May-2017,1,10,stim.wav,1,0,100,1.0839562009789618,1,4.503122546478989
8,19-May-2017,1,10,stim.wav,1,1,191,1.265722300093579,1,4.503122546478989
8,19-May-2017,1,10,stim.wav,1,2,293,-0.829039986982324,1,4.503122546478989
8,19-May-2017,1,10,stim.wav,1,3,406,-6.31485452118725,1,4.503122546478989
8,19-May-2017,1,10,stim.wav,1,4,533,2.4027932156773506,1,4.503122546478989
8,19-May-2017,1,10,stim.wav,1,5,673,1.8481659576642286,1,4.503122546478989
8,19-May-2017,1,10,stim.wav,1,6,830,-5.4659258310129175,1,4.503122546478989
8,19-May-2017,1,10,stim.wav,1,7,1004,-1.8124536243571088,1,4.503122546478989
8,19-May-2017,1,10,stim.wav,1,8,1199,2.720507881070062,1,4.503122546478989
8,19-May-2017,1,10,stim.wav,1,9,1416,-0.49160028196885763,1,4.503122546478989
8,19-May-2017,1,10,stim.wav,1,10,1657,4.998845149757283,1,4.503122546478989
8,19-May-2017,1,10,stim.wav,1,11,1926,10.233519761747122,1,4.503122546478989
8,19-May-2017,1,10,stim.wav,1,12,2226,5.4674972098050425,1,4.503122546478989
8,19-May-2017,1,10,stim.wav,1,13,2560,-3.8629239814204652,1,4.503122546478989
8,19-May-2017,1,10,stim.wav,1,14,2932,-0.8673505815581644,1,4.503122546478989
8,19-May-2017,1,10,stim.wav,1,15,3346,-2.6133537231009973,1,4.503122546478989
8,19-May-2017,1,10,stim.wav,1,16,3808,-1.7249764116850421,1,4.503122546478989
8,19-May-2017,1,10,stim.wav,1,17,4322,5.657148214011519,1,4.503122546478989
8,19-May-2017,1,10,stim.wav,1,18,4895,-1.0697460008055235,1,4.503122546478989
8,19-May-2017,1,10,stim.wav,1,19,5534,-5.4916894431123495,1,4.503122546478989
8,19-May-2017,1,10,stim.wav,1,20,6245,4.270469723498601,1,4.503122546478989
8,19-May-2017,1,10,stim.wav,1,21,7037,8.548499815179282,1,4.503122546478989
8,19-May-2017,1,10,stim.wav,1,22,7920,0.9676562331029068,1,4.503122546478989
8,19-May-2017,1,10,stim.wav,1,23,8904,-1.7937905017395648,1,4.503122546478989
8,19-May-2017,1,10,stim.wav,1,24,10000,-3.6047447326324726,1,4.503122546478989
8,19-May-2017,1,11,stim.wav,0,0,100,-8.74507522600307,1,3.5986220085217893
8,19-May-2017,1,11,stim.wav,0,1,191,0.5066714919296148,1,3.5986220085217893
8,19-May-2017,1,11,stim.wav,0,2,293,2.5113562070712,1,3.5986220085217893
8,19-May-2017,1,11,stim.wav,0,3,406,-7.570614610157316,1,3.5986220085217893
8,19-May-2017,1,11,stim.wav,0,4,533,-7.026334670543378,1,3.5986220085217893
8,19-May-2017,1,11,stim.wav,0,5,673,-6.943909309162612,1,3.5986220085217893
8,19-May-2017,1,11,stim.wav,0,6,830,3.33797185019322,1,3.5986220085217893
8,19-May-2017,1,11,stim.wav,0,7,1004,-6.156509842329498,1,3.5986220085217893
8,19-May-2017,1,11,stim.wav,0,8,1199,0.1608189285999588,1,3.5986220085217893
8,19-May-2017,1,11,stim.wav,0,9,1416,-6.767984495013226,1,3.5986220085217893
8,19-May-2017,1,11,stim.wav,0,10,1657,-0.09671309818646542,1,3.5986220085217893
8,19-May-2017,1,11,stim.wav,0,11,1926,-0.829318444468483,1,3.5986220085217893
8,19-May-2017,1,11,stim.wav,0,12,2226,2.1108954686934043,1,3.5986220085217893
8,19-May-2017,1,11,stim.wav,0,13,2560,0.7883659177216729,1,3.5986220085217893
8,19-May-2017,1,11,stim.wav,0,14,2932,-6.474104546230595,1,3.5986220085217893
8,19-May-2017,1,11,stim.wav,0,15,3346,7.386246970913773,1,3.5986220085217893
8,19-May-2017,1,11,stim.wav,0,16,3808,6.737966760075368,1,3.5986220085217893
8,19-May-2017,1,11,stim.wav,0,17,4322,-3.600020843098823,1,3.5986220085217893
8,19-May-2017,1,11,stim.wav,0,18,4895,2.4611992455091034,1,3.5986220085217893
8,19-May-2017,1,11,stim.wav,0,19,5534,5.382208280446684,1,3.5986220085217893
8,19-May-2017,1,11,stim.wav,0,20,6245,-4.147306285618723,1,3.5986220085217893
8,19-May-2017,1,11,stim.wav,0,21,7037,1.791977371501341,1,3.5986220085217893
8,19-May-2017,1,11,stim.wav,0,22,7920,2.8832806975635137,1,3.5986220085217893
8,19-May-2017,1,11,stim.wav,0,23,8904,-1.4452182058608898,1,3.5986220085217893
8,19-May-2017,1,11,stim.wav,0,24,10000,9.628403980738288,1,3.5986220085217893
8,19-May-2017,1,11,stim.wav,1,0,100,-6.303377349845313,0,3.5986220085217893
8,19-May-2017,1,11,stim.wav,1,1,191,-1.2366433333041313,0,3.5986220085217893
8,19-May-2017,1,11,stim.wav,1,2,293,-4.782522375204241,0,3.5986220085217893
8,19-May-2017,1,11,stim.wav,1,3,406,5.738993039701458,0,3.5986220085217893
8,19-May-2017,1,11,stim.wav,1,4,533,2.7201033210094394,0,3.5986220085217893
8,19-May-2017,1,11,stim.wav,1,5,673,-1.3931128459400979,0,3.5986220085217893
8,19-May-2017,1,11,stim.wav,1,6,830,6.648429349944935,0,3.5986220085217893
8,19-May-2017,1,11,stim.wav,1,7,1004,-6.660040858353139,0,3.5986220085217893
8,19-May-2017,1,11,stim.wav,1,8,1199,-1.6875486311341743,0,3.5986220085217893
8,19-May-2017,1,11,stim.wav,1,9,1416,-3.108904122266418,0,3.5986220085217893
8,19-May-2017,1,11,stim.wav,1,10,1657,6.29277557946174,0,3.5986220085217893
8,19-May-2017,1,11,stim.wav,1,11,1926,-2.093575104908907,0,3.5986220085217893
8,19-May-2017,1,11,stim.wav,1,12,2226,1.4003124725141674,0,3.5986220085217893
8,19-May-2017,1,11,stim.wav,1,13,2560,-5.953313615691982,0,3.5986220085217893
8,19-May-2017,1,11,stim.wav,1,14,2932,-3.1836783977236642,0,3.5986220085217893
8,19-May-2017,1,11,stim.wav,1,15,3346,-3.1919055778644436,0,3.5986220085217893
8,19-May-2017,1,11,stim.wav,1,16,3808,-8.700248984579641,0,3.5986220085217893
8,19-May-2017,1,11,stim.wav,1,17,4322,2.2560653149510173,0,3.5986220085217893
8,19-May-2017,1,11,stim.wav,1,18,4895,-1.807024752943684,0,3.5986220085217893
8,19-May-2017,1,11,stim.wav,1,19,5534,-0.24477701633025312,0,3.5986220085217893
8,19-May-2017,1,11,stim.wav,1,20,6245,-1.1443388491463171,0,3.5986220085217893
8,19-May-2017,1,11,stim.wav,1,21,7037,3.4115737731917073,0,3.5986220085217893
8,19-May-2017,1,11,stim.wav,1,22,7920,-2.4093771761553553,0,3.5986220085217893
8,19-May-2017,1,11,stim.wav,1,23,8904,-2.150713584265223,0,3.5986220085217893
8,19-May-2017,1,11,stim.wav,1,24,10000,-10.562684804721254,0,3.5986220085217893
8,19-May-2017,1,12,stim.wav,0,0,100,3.7289774876088524,1,2.625339580136807
8,19-May-2017,1,12,stim.wav,0,1,191,-4.310296876890003,1,2.625339580136807
8,19-May-2017,1,12,stim.wav,0,2,293,7.687793662926654,1,2.625339580136807
8,19-May-2017,1,12,stim.wav,0,3,406,-2.3589672968039945,1,2.625339580136807
8,19-May-2017,1,12,stim.wav,0,4,533,-3.3410149115636685,1,2.625339580136807
8,19-May-2017,1,12,stim.wav,0,5,673,0.12514150372431762,1,2.625339580136807
8,19-May-2017,1,12,stim.wav,0,6,830,2.495710963659658,1,2.625339580136807
8,19-May-2017,1,12,stim.wav,0,7,1004,-8.016750289308666,1,2.625339580136807
8,19-May-2017,1,12,stim.wav,0,8,1199,3.3913657942818887,1,2.625339580136807
8,19-May-2017,1,12,stim.wav,0,9,1416,1.8356331275328166,1,2.625339580136807
8,19-May-2017,1,12,stim.wav,0,10,1657,3.4016366265221123,1,2.625339580136807
8,19-May-2017,1,12,stim.wav,0,11,1926,-10.90282530244313,1,2.625339580136807
8,19-May-2017,1,12,stim.wav,0,12,2226,11.028094465536755,1,2.625339580136807
8,19-May-2017,1,12,stim.wav,0,13,2560,4.087806924309485,1,2.625339580136807
8,19-May-2017,1,12,stim.wav,0,14,2932,-1.6788830365941965,1,2.625339580136807
8,19-May-2017,1,12,stim.wav,0,15,3346,5.588972621483032,1,2.625339580136807
8,19-May-2017,1,12,stim.wav,0,16,3808,7.8848841348015934,1,2.625339580136807
8,19-May-2017,1,12,stim.wav,0,17,4322,-3.7272311937410327,1,2.625339580136807
8,19-May-2017,1,12,stim.wav,0,18,4895,-7.521311142534629,1,2.625339580136807
8,19-May-2017,1,12,stim.wav,0,19,5534,-2.4869155893698642,1,2.625339580136807
8,19-May-2017,1,12,stim.wav,0,20,6245,8.817501628091598,1,2.625339580136807
8,19-May-2017,1,12,stim.wav,0,21,7037,-8.639721397245246,1,2.625339580136807
8,19-May-2017,1,12,stim.wav,0,22,7920,5.5645779557690345,1,2.625339580136807
8,19-May-2017,1,12,stim.wav,0,23,8904,1.649387589703314,1,2.625339580136807
8,19-May-2017,1,12,stim.wav,0,24,10000,1.3804820588681657,1,2.625339580136807
8,19-May-2017,1,12,stim.wav,1,0,100,2.2515969483327805,0,2.625339580136807
8,19-May-2017,1,12,stim.wav,1,1,191,-0.005443220976864383,0,2.625339580136807
8,19-May-2017,1,12,stim.wav,1,2,293,5.828843201032045,0,2.625339580136807
8,19-May-2017,1,12,stim.wav,1,3,406,-0.11893020756679751,0,2.625339580136807
8,19-May-2017,1,12,stim.wav,1,4,533,-0.2797553275172417,0,2.625339580136807
8,19-May-2017,1,12,stim.wav,1,5,673,-5.251315422953046,0,2.625339580136807
8,19-May-2017,1,12,stim.wav,1,6,830,-3.813580998877772,0,2.625339580136807
8,19-May-2017,1,12,stim.wav,1,7,1004,-5.392862670067828,0,2.625339580136807
8,19-May-2017,1,12,stim.wav,1,8,1199,4.9133657815212,0,2.625339580136807
8,19-May-2017,1,12,stim.wav,1,9,1416,-0.12376260387160774,0,2.625339580136807
8,19-May-2017,1,12,stim.wav,1,10,1657,8.96291603612443,0,2.625339580136807
8,19-May-2017,1,12,stim.wav,1,11,1926,-4.34075607470159,0,2.625339580136807
8,19-May-2017,1,12,stim.wav,1,12,2226,-11.248156067770982,0,2.625339580136807
8,19-May-2017,1,12,stim.wav,1,13,2560,-3.9013422676689293,0,2.625339580136807
8,19-May-2017,1,12,stim.wav,1,14,2932,-1.3604714387377723,0,2.625339580136807
8,19-May-2017,1,12,stim.wav,1,15,3346,-6.313366895683403,0,2.625339580136807
8,19-May-2017,1,12,stim.wav,1,16,3808,-7.017787217495883,0,2.625339580136807
8,19-May-2017,1,12,stim.wav,1,17,4322,-2.6652602968140684,0,2.625339580136807
8,19-May-2017,1,12,stim.wav,1,18,4895,-3.4656551175623913,0,2.625339580136807
8,19-May-2017,1,12,stim.wav,1,19,5534,-3.180661233166975,0,2.625339580136807
8,19-May-2017,1,12,stim.wav,1,20,6245,-1.4461896769655485,0,2.625339580136807
8,19-May-2017,1,12,stim.wav,1,21,7037,-3.8677176478832083,0,2.625339580136807
8,19-May-2017,1,12,stim.wav,1,22,7920,-1.809590065512436,0,2.625339580136807
8,19-May-2017,1,12,stim.wav,1,23,8904,1.698479890905129,0,2.625339580136807
8,19-May-2017,1,12,stim.wav,1,24,10000,-4.867310463864928,0,2.625339580136807
8,19-May-2017,1,13,stim.wav,0,0,100,3.938471308177042,1,5.668128131312872
8,19-May-2017,1,13,stim.wav,0,1,191,6.098104158527712,1,5.668128131312872
8,19-May-2017,1,13,stim.wav,0,2,293,2.624762218653649,1,5.668128131312872
8,19-May-2017,1,13,stim.wav,0,3,406,-8.183911546183442,1,5.668128131312872
8,19-May-2017,1,13,stim.wav,0,4,533,2.6034833376003363,1,5.668128131312872
8,19-May-2017,1,13,stim.wav,0,5,673,4.876580982116334,1,5.668128131312872
8,19-May-2017,1,13,stim.wav,0,6,830,1.2878236723622867,1,5.668128131312872
8,19-May-2017,1,13,stim.wav,0,7,1004,-2.332180317408649,1,5.668128131312872
8,19-May-2017,1,13,stim.wav,0,8,1199,-2.3967582674132997,1,5.668128131312872
8,19-May-2017,1,13,stim.wav,0,9,1416,-4.858411935428298,1,5.668128131312872
8,19-May-2017,1,13,stim.wav,0,10,1657,2.110425936211506,1,5.668128131312872
8,19-May-2017,1,13,stim.wav,0,11,1926,-9.392604856851602,1,5.668128131312872
8,19-May-2017,1,13,stim.wav,0,12,2226,9.708448909708952,1,5.668128131312872
8,19-May-2017,1,13,stim.wav,0,13,2560,-4.7428878697655215,1,5.668128131312872
8,19-May-2017,1,13,stim.wav,0,14,2932,-1.7564219094949516,1,5.668128131312872
8,19-May-2017,1,13,stim.wav,0,15,3346,-0.35043052334006003,1,5.668128131312872
8,19-May-2017,1,13,stim.wav,0,16,3808,-0.626309860134624,1,5.668128131312872
8,19-May-2017,1,13,stim.wav,0,17,4322,1.7644829823826989,1,5.668128131312872
8,19-May-2017,1,13,stim.wav,0,18,4895,6.349729295453921,1,5.668128131312872
8,19-May-2017,1,13,stim.wav,0,19,5534,9.503923421841934,1,5.668128131312872
8,19-May-2017,1,13,stim.wav,0,20,6245,-8.24497600459152,1,5.668128131312872
8,19-May-2017,1,13,stim.wav,0,21,7037,-0.920326424652745,1,5.668128131312872
8,19-May-2017,1,13,stim.wav,0,22,7920,2.39523794092813,1,5.668128131312872
8,19-May-2017,1,13,stim.wav,0,23,8904,-0.9876638924717657,1,5.668128131312872
8,19-May-2017,1,13,stim.wav,0,24,10000,0.19685161773107332,1,5.668128131312872
8,19-May-2017,1,13,stim.wav,1,0,100,5.784277711204426,0,5.668128131312872
8,19-May-2017,1,13,stim.wav,1,1,191,-9.903186632110776,0,5.668128131312872
8,19-May-2017,1,13,stim.wav,1,2,293,-0.9713102142725227,0,5.668128131312872
8,19-May-2017,1,13,stim.wav,1,3,406,7.100154414264796,0,5.668128131312872
8,19-May-2017,1,13,stim.wav,1,4,533,0.9305504775490758,0,5.668128131312872
8,19-May-2017,1,13,stim.wav,1,5,673,1.6978219160975914,0,5.668128131312872
8,19-May-2017,1,13,stim.wav,1,6,830,-6.619946018547425,0,5.668128131312872
8,19-May-2017,1,13,stim.wav,1,7,1004,-5.5894449270972295,0,5.668128131312872
8,19-May-2017,1,13,stim.wav,1,8,1199,3.9036048108116708,0,5.668128131312872
8,19-May-2017,1,13,stim.wav,1,9,1416,2.1321952898926484,0,5.668128131312872
8,19-May-2017,1,13,stim.wav,1,10,1657,-6.45605770097458,0,5.668128131312872
8,19-May-2017,1,13,stim.wav,1,11,1926,-5.895515920293594,0,5.668128131312872
8,19-May-2017,1,13,stim.wav,1,12,2226,-1.1955068438895968,0,5.668128131312872
8,19-May-2017,1,13,stim.wav,1,13,2560,-6.851524505631922,0,5.668128131312872
8,19-May-2017,1,13,stim.wav,1,14,2932,-5.261772637600746,0,5.668128131312872
8,19-May-2017,1,13,stim.wav,1,15,3346,-0.8171413702957525,0,5.668128131312872
8,19-May-2017,1,13,stim.wav,1,16,3808,2.9844660912819068,0,5.668128131312872
8,19-May-2017,1,13,stim.wav,1,17,4322,3.0443639829880365,0,5.668128131312872
8,19-May-2017,1,13,stim.wav,1,18,4895,6.1629493555685375,0,5.668128131312872
8,19-May-2017,1,13,stim.wav,1,19,5534,0.0617262844633768,0,5.668128131312872
8,19-May-2017,1,13,stim.wav,1,20,6245,-5.158563269182151,0,5.668128131312872
8,19-May-2017,1,13,stim.wav,1,21,7037,-4.041986366512229,0,5.668128131312872
8,19-May-2017,1,13,stim.wav,1,22,7920,0.21819798765996798,0,5.668128131312872
8,19-May-2017,1,13,stim.wav,1,23,8904,4.140072570519248,0,5.668128131312872
8,19-May-2017,1,13,stim.wav,1,24,10000,-1.9617559459931642,0,5.668128131312872
8,19-May-2017,1,14,stim.wav,0,0,100,7.391524644911617,0,4.09396136629155
8,19-May-2017,1,14,stim.wav,0,1,191,-5.409493037459619,0,4.09396136629155
8,19-May-2017,1,14,stim.wav,0,2,293,-1.1861057151258467,0,4.09396136629155
8,19-May-2017,1,14,stim.wav,0,3,406,1.6404710663168398,0,4.09396136629155
8,19-May-2017,1,14,stim.wav,0,4,533,-4.972649942517151,0,4.09396136629155
8,19-May-2017,1,14,stim.wav,0,5,673,-4.985379462331276,0,4.09396136629155
8,19-May-2017,1,14,stim.wav,0,6,830,-5.481493430039524,0,4.09396136629155
8,19-May-2017,1,14,stim.wav,0,7,1004,-2.213316928381556,0,4.09396136629155
8,19-May-2017,1,14,stim.wav,0,8,1199,-8.483748539048534,0,4.09396136629155
8,19-May-2017,1,14,stim.wav,0,9,1416,-5.321172488002912,0,4.09396136629155
8,19-May-2017,1,14,stim.wav,0,10,1657,4.930348987802648,0,4.09396136629155
8,19-May-2017,1,14,stim.wav,0,11,1926,-3.898793901309043,0,4.09396136629155
8,19-May-2017,1,14,stim.wav,0,12,2226,-7.499036283637983,0,4.09396136629155
8,19-May-2017,1,14,stim.wav,0,13,2560,-1.4534105212090886,0,4.09396136629155
8,19-May-2017,1,14,stim.wav,0,14,2932,-6.964222299590709,0,4.09396136629155
8,19-May-2017,1,14,stim.wav,0,15,3346,3.6308305998495127,0,4.09396136629155
8,19-May-2017,1,14,stim.wav,0,16,3808,-8.665332995297106,0,4.09396136629155
8,19-May-2017,1,14,stim.wav,0,17,4322,-5.905874864429476,0,4.09396136629155
8,19-May-2017,1,14,stim.wav,0,18,4895,9.720680944428434,0,4.09396136629155
8,19-May-2017,1,14,stim.wav,0,19,5534,-5.0713455619768535,0,4.09396136629155
8,19-May-2017,1,14,stim.wav,0,20,6245,2.7606728269025034,0,4.09396136629155
8,19-May-2017,1,14,stim.wav,0,21,7037,-8.849503154146197,0,4.09396136629155
8,19-May-2017,1,14,stim.wav,0,22,7920,-3.3704538439190856,0,4.09396136629155
8,19-May-2017,1,14,stim.wav,0,23,8904,8.695460958815636,0,4.09396136629155
8,19-May-2017,1,14,stim.wav,0,24,10000,1.0035049706179697,0,4.09396136629155
8,19-May-2017,1,14,stim.wav,1,0,100,-0.2992263827986903,1,4.09396136629155
8,19-May-2017,1,14,stim.wav,1,1,191,-2.5041302718772798,1,4.09396136629155
8,19-May-2017,1,14,stim.wav,1,2,293,-1.6296581766906764,1,4.09396136629155
8,19-May-2017,1,14,stim.wav,1,3,406,1.0110808219161629,1,4.09396136629155
8,19-May-2017,1,14,stim.wav,1,4,533,-1.1768561432144913,1,4.09396136629155
8,19-May-2017,1,14,stim.wav,1,5,673,-6.533713457705383,1,4.09396136629155
8,19-May-2017,1,14,stim.wav,1,6,830,-0.3459023638124479,1,4.09396136629155
8,19-May-2017,1,14,stim.wav,1,7,1004,-2.6148247501073065,1,4.09396136629155
8,19-May-2017,1,14,stim.wav,1,8,1199,-1.0327131897439312,1,4.09396136629155
8,19-May-2017,1,14,stim.wav,1,9,1416,1.4154935931540578,1,4.09396136629155
8,19-May-2017,1,14,stim.wav,1,10,1657,0.7262322504479592,1,4.09396136629155
8,19-May-2017,1,14,stim.wav,1,11,1926,-1.4756083854610593,1,4.09396136629155
8,19-May-2017,1,14,stim.wav,1,12,2226,-7.62756445835473,1,4.09396136629155
8,19-May-2017,1,14,stim.wav,1,13,2560,6.793957683311054,1,4.09396136629155
8,19-May-2017,1,14,stim.wav,1,14,2932,-2.9503799128595847,1,4.09396136629155
8,19-May-2017,1,14,stim.wav,1,15,3346,2.8405345402741835,1,4.09396136629155
8,19-May-2017,1,14,stim.wav,1,16,3808,1.358299215800882,1,4.09396136629155
8,19-May-2017,1,14,stim.wav,1,17,4322,-0.5509258378216257,1,4.09396136629155
8,19-May-2017,1,14,stim.wav,1,18,4895,-1.556619223630567,1,4.09396136629155
8,19-May-2017,1,14,stim.wav,1,19,5534,1.59389934765239,1,4.09396136629155
8,19-May-2017,1,14,stim.wav,1,20,6245,-5.7077945781537895,1,4.09396136629155
8,19-May-2017,1,14,stim.wav,1,21,7037,-8.271604863147719,1,4.09396136629155
8,19-May-2017,1,14,stim.wav,1,22,7920,-6.049518981728532,1,4.09396136629155
8,19-May-2017,1,14,stim.wav,1,23,8904,-0.9122985214012451,1,4.09396136629155
8,19-May-2017,1,14,stim.wav,1,24,10000,-3.8604850893578235,1,4.09396136629155
8,19-May-2017,1,15,stim.wav,0,0,100,8.285376872816645,0,3.5508534618272756
8,19-May-2017,1,15,stim.wav,0,1,191,-8.10556654598342,0,3.5508534618272756
8,19-May-2017,1,15,stim.wav,0,2,293,6.622422417260387,0,3.5508534618272756
8,19-May-2017,1,15,stim.wav,0,3,406,-5.381367832755243,0,3.5508534618272756
8,19-May-2017,1,15,stim.wav,0,4,533,-0.241302325569525,0,3.5508534618272756
8,19-May-2017,1,15,stim.wav,0,5,673,0.4720543882402403,0,3.5508534618272756
8,19-May-2017,1,15,stim.wav,0,6,830,-6.192406023525368,0,3.5508534618272756
8,19-May-2017,1,15,stim.wav,0,7,1004,8.303646480115455,0,3.5508534618272756
8,19-May-2017,1,15,stim.wav,0,8,1199,1.4673085777903707,0,3.5508534618272756
8,19-May-2017,1,15,stim.wav,0,9,1416,2.8126315278215763,0,3.5508534618272756
8,19-May-2017,1,15,stim.wav,0,10,1657,10.4091043494137,0,3.5508534618272756
8,19-May-2017,1,15,stim.wav,0,11,1926,3.088332117368313,0,3.5508534618272756
8,19-May-2017,1,15,stim.wav,0,12,2226,4.81151986556781,0,3.5508534618272756
8,19-May-2017,1,15,stim.wav,0,13,2560,-5.367578641041675,0,3.5508534618272756
8,19-May-2017,1,15,stim.wav,0,14,2932,-9.775202333594068,0,3.5508534618272756
8,19-May-2017,1,15,stim.wav,0,15,3346,-2.130865509693107,0,3.5508534618272756
8,19-May-2017,1,15,stim.wav,0,16,3808,2.918661386258188,0,3.5508534618272756
8,19-May-2017,1,15,stim.wav,0,17,4322,3.5686702532651693,0,3.5508534618272756
8,19-May-2017,1,15,stim.wav,0,18,4895,7.820656215063532,0,3.5508534618272756
8,19-May-2017,1,15,stim.wav,0,19,5534,4.057095761005629,0,3.5508534618272756
8,19-May-2017,1,15,stim.wav,0,20,6245,0.415309242388599,0,3.5508534618272756
8,19-May-2017,1,15,stim.wav,0,21,7037,-6.385205210514656,0,3.5508534618272756
8,19-May-2017,1,15,stim.wav,0,22,7920,-1.2564077357311085,0,3.5508534618272756
8,19-May-2017,1,15,stim.wav,0,23,8904,1.6445567092835478,0,3.5508534618272756
8,19-May-2017,1,15,stim.wav,0,24,10000,-9.310088492719487,0,3.5508534618272756
8,19-May-2017,1,15,stim.wav,1,0,100,-0.24635527920592615,1,3.5508534618272756
8,19-May-2017,1,15,stim.wav,1,1,191,11.397432855951887,1,3.5508534618272756
8,19-May-2017,1,15,stim.wav,1,2,293,-6.379976112495065,1,3.5508534618272756
8,19-May-2017,1,15,stim.wav,1,3,406,1.5657711662440472,1,3.5508534618272756
8,19-May-2017,1,15,stim.wav,1,4,533,-8.755193123784418,1,3.5508534618272756
8,19-May-2017,1,15,stim.wav,1,5,673,1.2102746342943356,1,3.5508534618272756
8,19-May-2017,1,15,stim.wav,1,6,830,5.322967402334443,1,3.5508534618272756
8,19-May-2017,1,15,stim.wav,1,7,1004,6.477339741219305,1,3.5508534618272756
8,19-May-2017,1,15,stim.wav,1,8,1199,1.890408062927068,1,3.5508534618272756
8,19-May-2017,1,15,stim.wav,1,9,1416,2.579670861763069,1,3.5508534618272756
8,19-May-2017,1,15,stim.wav,1,10,1657,3.9258476866175114,1,3.5508534618272756
8,19-May-2017,1,15,stim.wav,1,11,1926,-2.37866076909469,1,3.5508534618272756
8,19-May-2017,1,15,stim.wav,1,12,2226,-1.9219779605834664,1,3.5508534618272756
8,19-May-2017,1,15,stim.wav,1,13,2560,-2.5153941847277235,1,3.5508534618272756
8,19-May-2017,1,15,stim.wav,1,14,2932,-5.271114721621358,1,3.5508534618272756
8,19-May-2017,1,15,stim.wav,1,15,3346,-3.348858486534707,1,3.5508534618272756
8,19-May-2017,1,15,stim.wav,1,16,3808,-1.00726351683645,1,3.5508534618272756
8,19-May-2017,1,15,stim.wav,1,17,4322,-9.137862900680313,1,3.5508534618272756
8,19-May-2017,1,15,stim.wav,1,18,4895,1.1443812058655203,1,3.5508534618272756
8,19-May-2017,1,15,stim.wav,1,19,5534,-2.9568231817626662,1,3.5508534618272756
8,19-May-2017,1,15,stim.wav,1,20,6245,1.7897883701391823,1,3.5508534618272756
8,19-May-2017,1,15,stim.wav,1,21,7037,-0.030058388190911355,1,3.5508534618272756
8,19-May-2017,1,15,stim.wav,1,22,7920,0.15671178695901145,1,3.5508534618272756
8,19-May-2017,1,15,stim.wav,1,23,8904,0.13545960867646864,1,3.5508534618272756
8,19-May-2017,1,15,stim.wav,1,24,10000,3.740216420256229,1,3.5508534618272756
8,19-May-2017,1,16,stim.wav,0,0,100,-1.5452295946781514,1,3.177055826102128
8,19-May-2017,1,16,stim.wav,0,1,191,-7.61469254046427,1,3.177055826102128
8,19-May-2017,1,16,stim.wav,0,2,293,-3.0326540217256266,1,3.177055826102128
8,19-May-2017,1,16,stim.wav,0,3,406,4.264104778462857,1,3.177055826102128
8,19-May-2017,1,16,stim.wav,0,4,533,2.707760450833682,1,3.177055826102128
8,19-May-2017,1,16,stim.wav,0,5,673,-8.91228675236832,1,3.177055826102128
8,19-May-2017,1,16,stim.wav,0,6,830,-1.26755530439714,1,3.177055826102128
8,19-May-2017,1,16,stim.wav,0,7,1004,-0.9543419998760405,1,3.177055826102128
8,19-May-2017,1,16,stim.wav,0,8,1199,-2.150219634624234,1,3.177055826102128
8,19-May-2017,1,16,stim.wav,0,9,1416,4.206650309123378,1,3.177055826102128
8,19-May-2017,1,16,stim.wav,0,10,1657,8.638517618446073,1,3.177055826102128
8,19-May-2017,1,16,stim.wav,0,11,1926,3.1428009810283704,1,3.177055826102128
8,19-May-2017,1,16,stim.wav,0,12,2226,5.8736356015681395,1,3.177055826102128
8,19-May-2017,1,16,stim.wav,0,13,2560,-5.050775258723947,1,3.177055826102128
8,19-May-2017,1,16,stim.wav,0,14,2932,1.8117351413763674,1,3.177055826102128
8,19-May-2017,1,16,stim.wav,0,15,3346,10.891234732964625,1,3.177055826102128
8,19-May-2017,1,16,stim.wav,0,16,3808,1.905433847115448,1,3.177055826102128
8,19-May-2017,1,16,stim.wav,0,17,4322,5.810219877381678,1,3.177055826102128
8,19-May-2017,1,16,stim.wav,0,18,4895,3.007050443314683,1,3.177055826102128
8,19-May-2017,1,16,stim.wav,0,19,5534,-1.361240920824911,1,3.177055826102128
8,19-May-2017,1,16,stim.wav,0,20,6245,1.6791008204987536,1,3.177055826102128
8,19-May-2017,1,16,stim.wav,0,21,7037,-5.845760639875278,1,3.177055826102128
8,19-May-2017,1,16,stim.wav,0,22,7920,3.519216805083491,1,3.177055826102128
8,19-May-2017,1,16,stim.wav,0,23,8904,2.9752702413993455,1,3.177055826102128
8,19-May-2017,1,16,stim.wav,0,24,10000,-8.690131177946181,1,3.177055826102128
8,19-May-2017,1,16,stim.wav,1,0,100,0.0980282038236202,0,3.177055826102128
8,19-May-2017,1,16,stim.wav,1,1,191,4.46018881648449,0,3.177055826102128
8,19-May-2017,1,16,stim.wav,1,2,293,1.775334213756342,0,3.177055826102128
8,19-May-2017,1,16,stim.wav,1,3,406,1.3479956920847924,0,3.177055826102128
8,19-May-2017,1,16,stim.wav,1,4,533,2.0265713703715313,0,3.177055826102128
8,19-May-2017,1,16,stim.wav,1,5,673,1.1900758043306943,0,3.177055826102128
8,19-May-2017,1,16,stim.wav,1,6,830,-0.9553553336710097,0,3.177055826102128
8,19-May-2017,1,16,stim.wav,1,7,1004,7.798035847671782,0,3.177055826102128
8,19-May-2017,1,16,stim.wav,1,8,1199,7.909598087566444,0,3.177055826102128
8,19-May-2017,1,16,stim.wav,1,9,1416,7.8284807603654025,0,3.177055826102128
8,19-May-2017,1,16,stim.wav,1,10,1657,-9.245606396041012,0,3.177055826102128
8,19-May-2017,1,16,stim.wav,1,11,1926,-3.2855305762669977,0,3.177055826102128
8,19-May-2017,1,16,stim.wav,1,12,2226,-0.017068728953680994,0,3.177055826102128
8,19-May-2017,1,16,stim.wav,1,13,2560,-1.8075998199050336,0,3.177055826102128
8,19-May-2017,1,16,stim.wav,1,14,2932,2.167912063254876,0,3.177055826102128
8,19-May-2017,1,16,stim.wav,1,15,3346,2.4351964225152614,0,3.177055826102128
8,19-May-2017,1,16,stim.wav,1,16,3808,7.203558737540561,0,3.177055826102128
8,19-May-2017,1,16,stim.wav,1,17,4322,2.46957542479244,0,3.177055826102128
8,19-May-2017,1,16,stim.wav,1,18,4895,-3.8912831085791426,0,3.177055826102128
8,19-May-2017,1,16,stim.wav,1,19,5534,1.3629526565721886,0,3.177055826102128
8,19-May-2017,1,16,stim.wav,1,20,6245,4.563147303299005,0,3.177055826102128
8,19-May-2017,1,16,stim.wav,1,21,7037,1.0547234315030722,0,3.177055826102128
8,19-May-2017,1,16,stim.wav,1,22,7920,2.933978062899962,0,3.177055826102128
8,19-May-2017,1,16,stim.wav,1,23,8904,7.761113848525055,0,3.177055826102128
8,19-May-2017,1,16,stim.wav,1,24,10000,0.524767989304218,0,3.177055826102128
8,19-May-2017,1,17,stim.wav,0,0,100,-0.6328017450853313,0,4.196354890963175
8,19-May-2017,1,17,stim.wav,0,1,191,5.008080638314711,0,4.196354890963175
8,19-May-2017,1,17,stim.wav,0,2,293,-1.3108399361640342,0,4.196354890963175
8,19-May-2017,1,17,stim.wav,0,3,406,2.5831123421668356,0,4.196354890963175
8,19-May-2017,1,17,stim.wav,0,4,533,6.871874268932935,0,4.196354890963175
8,19-May-2017,1,17,stim.wav,0,5,673,2.2448509760576254,0,4.196354890963175
8,19-May-2017,1,17,stim.wav,0,6,830,-0.6526030651563729,0,4.196354890963175
8,19-May-2017,1,17,stim.wav,0,7,1004,-10.45282771542675,0,4.196354890963175
8,19-May-2017,1,17,stim.wav,0,8,1199,-3.8708562373663224,0,4.196354890963175
8,19-May-2017,1,17,stim.wav,0,9,1416,-1.9019552641610094,0,4.196354890963175
8,19-May-2017,1,17,stim.wav,0,10,1657,-2.0390051307389876,0,4.196354890963175
8,19-May-2017,1,17,stim.wav,0,11,1926,-5.376071511415537,0,4.196354890963175
8,19-May-2017,1,17,stim.wav,0,12,2226,-5.054649826636917,0,4.196354890963175
8,19-May-2017,1,17,stim.wav,0,13,2560,-1.7554424726189943,0,4.196354890963175
8,19-May-2017,1,17,stim.wav,0,14,2932,-4.236441258516079,0,4.196354890963175
8,19-May-2017,1,17,stim.wav,0,15,3346,6.627018356852452,0,4.196354890963175
8,19-May-2017,1,17,stim.wav,0,16,3808,5.372654747266942,0,4.196354890963175
8,19-May-2017,1,17,stim.wav,0,17,4322,-10.749235417277756,0,4.196354890963175
8,19-May-2017,1,17,stim.wav,0,18,4895,-1.5383715876231199,0,4.196354890963175
8,19-May-2017,1,17,stim.wav,0,19,5534,1.7895511790943972,0,4.196354890963175
8,19-May-2017,1,17,stim.wav,0,20,6245,-1.927964132163518,0,4.196354890963175
8,19-May-2017,1,17,stim.wav,0,21,7037,0.7836057827537855,0,4.196354890963175
8,19-May-2017,1,17,stim.wav,0,22,7920,-0.2983728294518677,0,4.196354890963175
8,19-May-2017,1,17,stim.wav,0,23,8904,9.29069955438386,0,4.196354890963175
8,19-May-2017,1,17,stim.wav,0,24,10000,-2.153876379178957,0,4.196354890963175
8,19-May-2017,1,17,stim.wav,1,0,100,-0.02240571302760736,1,4.196354890963175
8,19-May-2017,1,17,stim.wav,1,1,191,-9.584191147630408,1,4.196354890963175
8,19-May-2017,1,17,stim.wav,1,2,293,8.252241916776388,1,4.196354890963175
8,19-May-2017,1,17,stim.wav,1,3,406,-5.134923793047489,1,4.196354890963175
8,19-May-2017,1,17,stim.wav,1,4,533,-1.14849572991317,1,4.196354890963175
8,19-May-2017,1,17,stim.wav,1,5,673,5.283934442100745,1,4.196354890963175
8,19-May-2017,1,17,stim.wav,1,6,830,1.7267121197615667,1,4.196354890963175
8,19-May-2017,1,17,stim.wav,1,7,1004,-6.495338295007541,1,4.196354890963175
8,19-May-2017,1,17,stim.wav,1,8,1199,8.126354106912258,1,4.196354890963175
8,19-May-2017,1,17,stim.wav,1,9,1416,3.625220748477313,1,4.196354890963175
8,19-May-2017,1,17,stim.wav,1,10,1657,1.757090558263714,1,4.196354890963175
8,19-May-2017,1,17,stim.wav,1,11,1926,0.9227223484832088,1,4.196354890963175
8,19-May-2017,1,17,stim.wav,1,12,2226,-0.59195279701926,1,4.196354890963175
8,19-May-2017,1,17,stim.wav,1,13,2560,0.47275649950771037,1,4.196354890963175
8,19-May-2017,1,17,stim.wav,1,14,2932,-0.4455058643163706,1,4.196354890963175
8,19-May-2017,1,17,stim.wav,1,15,3346,4.861434170917897,1,4.196354890963175
8,19-May-2017,1,17,stim.wav,1,16,3808,-2.216711405758473,1,4.196354890963175
8,19-May-2017,1,17,stim.wav,1,17,4322,-4.034772245082197,1,4.196354890963175
8,19-May-2017,1,17,stim.wav,1,18,4895,0.7964210223518213,1,4.196354890963175
8,19-May-2017,1,17,stim.wav,1,19,5534,-0.0653885393657205,1,4.196354890963175
8,19-May-2017,1,17,stim.wav,1,20,6245,-2.1174156075023087,1,4.196354890963175
8,19-May-2017,1,17,stim.wav,1,21,7037,-6.943994530063198,1,4.196354890963175
8,19-May-2017,1,17,stim.wav,1,22,7920,-6.876598068786139,1,4.196354890963175
8,19-May-2017,1,17,stim.wav,1,23,8904,-0.2227946939098115,1,4.196354890963175
8,19-May-2017,1,17,stim.wav,1,24,10000,-8.86277816752692,1,4.196354890963175
8,19-May-2017,1,18,stim.wav,0,0,100,2.9471550545857603,0,5.875698189761195
8,19-May-2017,1,18,stim.wav,0,1,191,3.305522961938092,0,5.875698189761195
8,19-May-2017,1,18,stim.wav,0,2,293,-3.224908389406129,0,5.875698189761195
8,19-May-2017,1,18,stim.wav,0,3,406,-7.7441810468065935,0,5.875698189761195
8,19-May-2017,1,18,stim.wav,0,4,533,4.156411326013025,0,5.875698189761195
8,19-May-2017,1,18,stim.wav,0,5,673,5.292870277341757,0,5.875698189761195
8,19-May-2017,1,18,stim.wav,0,6,830,-0.3649428187047411,0,5.875698189761195
8,19-May-2017,1,18,stim.wav,0,7,1004,0.2468225469545043,0,5.875698189761195
8,19-May-2017,1,18,stim.wav,0,8,1199,7.695113976508097,0,5.875698189761195
8,19-May-2017,1,18,stim.wav,0,9,1416,-4.639290138599062,0,5.875698189761195
8,19-May-2017,1,18,stim.wav,0,10,1657,-7.788274712614632,0,5.875698189761195
8,19-May-2017,1,18,stim.wav,0,11,1926,-2.7188398633517026,0,5.875698189761195
8,19-May-2017,1,18,stim.wav,0,12,2226,-1.4913062697083879,0,5.875698189761195
8,19-May-2017,1,18,stim.wav,0,13,2560,-0.479054560397552,0,5.875698189761195
8,19-May-2017,1,18,stim.wav,0,14,2932,-2.2698367612656143,0,5.875698189761195
8,19-May-2017,1,18,stim.wav,0,15,3346,0.043059936770483496,0,5.875698189761195
8,19-May-2017,1,18,stim.wav,0,16,3808,-5.081014655894212,0,5.875698189761195
8,19-May-2017,1,18,stim.wav,0,17,4322,0.6184913102794297,0,5.875698189761195
8,19-May-2017,1,18,stim.wav,0,18,4895,2.3572601161101674,0,5.875698189761195
8,19-May-2017,1,18,stim.wav,0,19,5534,-2.210315400810836,0,5.875698189761195
8,19-May-2017,1,18,stim.wav,0,20,6245,-6.888024346827974,0,5.875698189761195
8,19-May-2017,1,18,stim.wav,0,21,7037,1.105725876086828,0,5.875698189761195
8,19-May-2017,1,18,stim.wav,0,22,7920,1.9687494000399717,0,5.875698189761195
8,19-May-2017,1,18,stim.wav,0,23,8904,6.560493523301415,0,5.875698189761195
8,19-May-2017,1,18,stim.wav,0,24,10000,-2.1866347452631048,0,5.875698189761195
8,19-May-2017,1,18,stim.wav,1,0,100,-3.0357500602435734,1,5.875698189761195
8,19-May-2017,1,18,stim.wav,1,1,191,-0.6756321806359136,1,5.875698189761195
8,19-May-2017,1,18,stim.wav,1,2,293,-0.9148813612764586,1,5.875698189761195
8,19-May-2017,1,18,stim.wav,1,3,406,0.8755935252431206,1,5.875698189761195
8,19-May-2017,1,18,stim.wav,1,4,533,8.069051696704454,1,5.875698189761195
8,19-May-2017,1,18,stim.wav,1,5,673,-5.399485706547189,1,5.875698189761195
8,19-May-2017,1,18,stim.wav,1,6,830,-2.295473801710066,1,5.875698189761195
8,19-May-2017,1,18,stim.wav,1,7,1004,-0.4492742806513713,1,5.875698189761195
8,19-May-2017,1,18,stim.wav,1,8,1199,4.099803563861529,1,5.875698189761195
8,19-May-2017,1,18,stim.wav,1,9,1416,3.405252048564551,1,5.875698189761195
8,19-May-2017,1,18,stim.wav,1,10,1657,0.11258615996739846,1,5.875698189761195
8,19-May-2017,1,18,stim.wav,1,11,1926,-0.36778369595597504,1,5.875698189761195
8,19-May-2017,1,18,stim.wav,1,12,2226,-2.2438875997787173,1,5.875698189761195
8,19-May-2017,1,18,stim.wav,1,13,2560,-0.40121758796998647,1,5.875698189761195
8,19-May-2017,1,18,stim.wav,1,14,2932,-6.946773107966471,1,5.875698189761195
8,19-May-2017,1,18,stim.wav,1,15,3346,-0.2748916559803307,1,5.875698189761195
8,19-May-2017,1,18,stim.wav,1,16,3808,0.5916360025595762,1,5.875698189761195
8,19-May-2017,1,18,stim.wav,1,17,4322,1.5295523284724963,1,5.875698189761195
8,19-May-2017,1,18,stim.wav,1,18,4895,3.455458382344643,1,5.875698189761195
8,19-May-2017,1,18,stim.wav,1,19,5534,-1.7751714464819655,1,5.875698189761195
8,19-May-2017,1,18,stim.wav,1,20,6245,0.05275366689906683,1,5.875698189761195
8,19-May-2017,1,18,stim.wav,1,21,7037,-1.3581442628753368,1,5.875698189761195
8,19-May-2017,1,18,stim.wav,1,22,7920,0.09049745819107563,1,5.875698189761195
8,19-May-2017,1,18,stim.wav,1,23,8904,5.209186341147554,1,5.875698189761195
8,19-May-2017,1,18,stim.wav,1,24,10000,0.179081106307139,1,5.875698189761195
8,19-May-2017,1,19,stim.wav,0,0,100,-7.440009765666612,0,1.2158174811287352
8,19-May-2017,1,19,stim.wav,0,1,191,-6.747395513120898,0,1.2158174811287352
8,19-May-2017,1,19,stim.wav,0,2,293,5.240869638396985,0,1.2158174811287352
8,19-May-2017,1,19,stim.wav,0,3,406,-5.357761089203019,0,1.2158174811287352
8,19-May-2017,1,19,stim.wav,0,4,533,4.242701185972043,0,1.2158174811287352
8,19-May-2017,1,19,stim.wav,0,5,673,1.0627495735317725,0,1.2158174811287352
8,19-May-2017,1,19,stim.wav,0,6,830,-9.607203988793104,0,1.2158174811287352
8,19-May-2017,1,19,stim.wav,0,7,1004,-0.0718068318649722,0,1.2158174811287352
8,19-May-2017,1,19,stim.wav,0,8,1199,0.9753007943480945,0,1.2158174811287352
8,19-May-2017,1,19,stim.wav,0,9,1416,-5.366560730400458,0,1.2158174811287352
8,19-May-2017,1,19,stim.wav,0,10,1657,-1.3788583239378958,0,1.2158174811287352
8,19-May-2017,1,19,stim.wav,0,11,1926,-9.219251871941342,0,1.2158174811287352
8,19-May-2017,1,19,stim.wav,0,12,2226,-3.108255717271586,0,1.2158174811287352
8,19-May-2017,1,19,stim.wav,0,13,2560,0.02117258335240828,0,1.2158174811287352
8,19-May-2017,1,19,stim.wav,0,14,2932,0.9654001664680266,0,1.2158174811287352
8,19-May-2017,1,19,stim.wav,0,15,3346,-1.1526531890193188,0,1.2158174811287352
8,19-May-2017,1,19,stim.wav,0,16,3808,2.6203382064143126,0,1.2158174811287352
8,19-May-2017,1,19,stim.wav,0,17,4322,1.8125758479152387,0,1.2158174811287352
8,19-May-2017,1,19,stim.wav,0,18,4895,0.8715911176920343,0,1.2158174811287352
8,19-May-2017,1,19,stim.wav,0,19,5534,3.1602752712695263,0,1.2158174811287352
8,19-May-2017,1,19,stim.wav,0,20,6245,-3.748597062774437,0,1.2158174811287352
8,19-May-2017,1,19,stim.wav,0,21,7037,7.153951134512063,0,1.2158174811287352
8,19-May-2017,1,19,stim.wav,0,22,7920,-4.994070957344436,0,1.2158174811287352
8,19-May-2017,1,19,stim.wav,0,23,8904,3.172588764988973,0,1.2158174811287352
8,19-May-2017,1,19,stim.wav,0,24,10000,-1.6747077480511285,0,1.2158174811287352
8,19-May-2017,1,19,stim.wav,1,0,100,-10.8374058091608,1,1.2158174811287352
8,19-May-2017,1,19,stim.wav,1,1,191,0.6865600249638931,1,1.2158174811287352
8,19-May-2017,1,19,stim.wav,1,2,293,-0.27764476337148397,1,1.2158174811287352
8,19-May-2017,1,19,stim.wav,1,3,406,-1.3034125534224226,1,1.2158174811287352
8,19-May-2017,1,19,stim.wav,1,4,533,-1.5058998052987338,1,1.2158174811287352
8,19-May-2017,1,19,stim.wav,1,5,673,-1.4465095868565259,1,1.2158174811287352
8,19-May-2017,1,19,stim.wav,1,6,830,6.74474013245857,1,1.2158174811287352
8,19-May-2017,1,19,stim.wav,1,7,1004,-5.07047067341433,1,1.2158174811287352
8,19-May-2017,1,19,stim.wav,1,8,1199,2.287182141969526,1,1.2158174811287352
8,19-May-2017,1,19,stim.wav,1,9,1416,1.977200189057775,1,1.2158174811287352
8,19-May-2017,1,19,stim.wav,1,10,1657,0.906414333668548,1,1.2158174811287352
8,19-May-2017,1,19,stim.wav,1,11,1926,-6.627524825866271,1,1.2158174811287352
8,19-May-2017,1,19,stim.wav,1,12,2226,1.205373916220618,1,1.2158174811287352
8,19-May-2017,1,19,stim.wav,1,13,2560,-2.4951987350703635,1,1.2158174811287352
8,19-May-2017,1,19,stim.wav,1,14,2932,3.3136899538451896,1,1.2158174811287352
8,19-May-2017,1,19,stim.wav,1,15,3346,1.9196607775728345,1,1.2158174811287352
8,19-May-2017,1,19,stim.wav,1,16,3808,3.9017654764465135,1,1.2158174811287352
8,19-May-2017,1,19,stim.wav,1,17,4322,-9.526155605873509,1,1.2158174811287352
8,19-May-2017,1,19,stim.wav,1,18,4895,5.589662890930772,1,1.2158174811287352
8,19-May-2017,1,19,stim.wav,1,19,5534,6.374548720887148,1,1.2158174811287352
8,19-May-2017,1,19,stim.wav,1,20,6245,-2.2148237351477476,1,1.2158174811287352
8,19-May-2017,1,19,stim.wav,1,21,7037,-0.21984345809152628,1,1.2158174811287352
8,19-May-2017,1,19,stim.wav,1,22,7920,4.2299998620121215,1,1.2158174811287352
8,19-May-2017,1,19,stim.wav,1,23,8904,4.485785215650991,1,1.2158174811287352
8,19-May-2017,1,19,stim.wav,1,24,10000,-1.043645559170475,1,1.2158174811287352
8,19-May-2017,1,20,stim.wav,0,0,100,6.954791941731841,0,1.056542124015812
8,19-May-2017,1,20,stim.wav,0,1,191,-5.6302892767870185,0,1.056542124015812
8,19-May-2017,1,20,stim.wav,0,2,293,4.141774551917353,0,1.056542124015812
8,19-May-2017,1,20,stim.wav,0,3,406,4.600676297471055,0,1.056542124015812
8,19-May-2017,1,20,stim.wav,0,4,533,-0.4825579414136877,0,1.056542124015812
8,19-May-2017,1,20,stim.wav,0,5,673,6.335504213041741,0,1.056542124015812
8,19-May-2017,1,20,stim.wav,0,6,830,0.8373623698958788,0,1.056542124015812
8,19-May-2017,1,20,stim.wav,0,7,1004,-2.5974806872485665,0,1.056542124015812
8,19-May-2017,1,20,stim.wav,0,8,1199,3.679000059865686,0,1.056542124015812
8,19-May-2017,1,20,stim.wav,0,9,1416,-11.240075087914224,0,1.056542124015812
8,19-May-2017,1,20,stim.wav,0,10,1657,4.418403223254858,0,1.056542124015812
8,19-May-2017,1,20,stim.wav,0,11,1926,9.218895694617794,0,1.056542124015812
8,19-May-2017,1,20,stim.wav,0,12,2226,-0.5287338161013911,0,1.056542124015812
8,19-May-2017,1,20,stim.wav,0,13,2560,9.736757757194555,0,1.056542124015812
8,19-May-2017,1,20,stim.wav,0,14,2932,5.357606620331355,0,1.056542124015812
8,19-May-2017,1,20,stim.wav,0,15,3346,-1.8997649361627336,0,1.056542124015812
8,19-May-2017,1,20,stim.wav,0,16,3808,-2.689816492458086,0,1.056542124015812
8,19-May-2017,1,20,stim.wav,0,17,4322,-3.147173407513253,0,1.056542124015812
8,19-May-2017,1,20,stim.wav,0,18,4895,1.9615143346674366,0,1.056542124015812
8,19-May-2017,1,20,stim.wav,0,19,5534,2.0585148356683343,0,1.056542124015812
8,19-May-2017,1,20,stim.wav,0,20,6245,2.4337805995228794,0,1.056542124015812
8,19-May-2017,1,20,stim.wav,0,21,7037,1.7036385300125163,0,1.056542124015812
8,19-May-2017,1,20,stim.wav,0,22,7920,6.378491824121664,0,1.056542124015812
8,19-May-2017,1,20,stim.wav,0,23,8904,-4.073242944938963,0,1.056542124015812
8,19-May-2017,1,20,stim.wav,0,24,10000,9.711574455387812,0,1.056542124015812
8,19-May-2017,1,20,stim.wav,1,0,100,-3.8367160612583495,1,1.056542124015812
8,19-May-2017,1,20,stim.wav,1,1,191,1.6442090500136852,1,1.056542124015812
8,19-May-2017,1,20,stim.wav,1,2,293,3.9185221002141946,1,1.056542124015812
8,19-May-2017,1,20,stim.wav,1,3,406,-7.908259580993791,1,1.056542124015812
8,19-May-2017,1,20,stim.wav,1,4,533,-7.803571371070518,1,1.056542124015812
8,19-May-2017,1,20,stim.wav,1,5,673,3.6579611732065205,1,1.056542124015812
8,19-May-2017,1,20,stim.wav,1,6,830,-4.717281602361218,1,1.056542124015812
8,19-May-2017,1,20,stim.wav,1,7,1004,5.58866023816864,1,1.056542124015812
8,19-May-2017,1,20,stim.wav,1,8,1199,3.3517336689767325,1,1.056542124015812
8,19-May-2017,1,20,stim.wav,1,9,1416,4.969953142150164,1,1.056542124015812
8,19-May-2017,1,20,stim.wav,1,10,1657,-2.3799053996061277,1,1.056542124015812
8,19-May-2017,1,20,stim.wav,1,11,1926,0.0264459809970259,1,1.056542124015812
8,19-May-2017,1,20,stim.wav,1,12,2226,-1.8802733947106178,1,1.056542124015812
8,19-May-2017,1,20,stim.wav,1,13,2560,-4.5853063416704,1,1.056542124015812
8,19-May-2017,1,20,stim.wav,1,14,2932,5.674469715582825,1,1.056542124015812
8,19-May-2017,1,20,stim.wav,1,15,3346,-2.6254859895800586,1,1.056542124015812
8,19-May-2017,1,20,stim.wav,1,16,3808,6.81928540555257,1,1.056542124015812
8,19-May-2017,1,20,stim.wav,1,17,4322,0.7653317244474435,1,1.056542124015812
8,19-May-2017,1,20,stim.wav,1,18,4895,2.2618743412362035,1,1.056542124015812
8,19-May-2017,1,20,stim.wav,1,19,5534,5.715086171467938,1,1.056542124015812
8,19-May-2017,1,20,stim.wav,1,20,6245,0.23269918480639545,1,1.056542124015812
8,19-May-2017,1,20,stim.wav,1,21,7037,-1.2729487446256849,1,1.056542124015812
8,19-May-2017,1,20,stim.wav,1,22,7920,-0.2551306381637568,1,1.056542124015812
8,19-May-2017,1,20,stim.wav,1,23,8904,-2.3401991606923795,1,1.056542124015812
8,19-May-2017,1,20,stim.wav,1,24,10000,4.943559946530213,1,1.056542124015812
8,19-May-2017,1,21,stim.wav,0,0,100,-4.375668748355862,1,4.781001985908771
8,19-May-2017,1,21,stim.wav,0,1,191,7.894537287037387,1,4.781001985908771
8,19-May-2017,1,21,stim.wav,0,2,293,-1.3780792878318673,1,4.781001985908771
8,19-May-2017,1,21,stim.wav,0,3,406,0.18561295499575928,1,4.781001985908771
8,19-May-2017,1,21,stim.wav,0,4,533,-10.929723912847466,1,4.781001985908771
8,19-May-2017,1,21,stim.wav,0,5,673,0.4479793406691051,1,4.781001985908771
8,19-May-2017,1,21,stim.wav,0,6,830,-1.5961843106870732,1,4.781001985908771
8,19-May-2017,1,21,stim.wav,0,7,1004,6.977130721095474,1,4.781001985908771
8,19-May-2017,1,21,stim.wav,0,8,1199,2.3333298329942207,1,4.781001985908771
8,19-May-2017,1,21,stim.wav,0,9,1416,5.029423585988234,1,4.781001985908771
8,19-May-2017,1,21,stim.wav,0,10,1657,0.604278371184913,1,4.781001985908771
8,19-May-2017,1,21,stim.wav,0,11,1926,2.7705425584490295,1,4.781001985908771
8,19-May-2017,1,21,stim.wav,0,12,2226,-2.6999895580142064,1,4.781001985908771
8,19-May-2017,1,21,stim.wav,0,13,2560,1.7140715105229574,1,4.781001985908771
8,19-May-2017,1,21,stim.wav,0,14,2932,0.8823577874345641,1,4.781001985908771
8,19-May-2017,1,21,stim.wav,0,15,3346,-2.7322955691609145,1,4.781001985908771
8,19-May-2017,1,21,stim.wav,0,16,3808,-1.4094813557318404,1,4.781001985908771
8,19-May-2017,1,21,stim.wav,0,17,4322,2.720258068342221,1,4.781001985908771
8,19-May-2017,1,21,stim.wav,0,18,4895,-2.8839027768839105,1,4.781001985908771
8,19-May-2017,1,21,stim.wav,0,19,5534,0.6575149306143248,1,4.781001985908771
8,19-May-2017,1,21,stim.wav,0,20,6245,-4.994107674088316,1,4.781001985908771
8,19-May-2017,1,21,stim.wav,0,21,7037,-4.814154142050214,1,4.781001985908771
8,19-May-2017,1,21,stim.wav,0,22,7920,8.679564304549624,1,4.781001985908771
8,19-May-2017,1,21,stim.wav,0,23,8904,2.592393357545763,1,4.781001985908771
8,19-May-2017,1,21,stim.wav,0,24,10000,-0.40464718827689006,1,4.781001985908771
8,19-May-2017,1,21,stim.wav,1,0,100,-0.23528677951933802,0,4.781001985908771
8,19-May-2017,1,21,stim.wav,1,1,191,0.16531146401621147,0,4.781001985908771
8,19-May-2017,1,21,stim.wav,1,2,293,-2.8306592685754737,0,4.781001985908771
8,19-May-2017,1,21,stim.wav,1,3,406,2.8861435494267984,0,4.781001985908771
8,19-May-2017,1,21,stim.wav,1,4,533,-3.8572725422715526,0,4.781001985908771
8,19-May-2017,1,21,stim.wav,1,5,673,-6.876777278561246,0,4.781001985908771
8,19-May-2017,1,21,stim.wav,1,6,830,-0.19504481879653476,0,4.781001985908771
8,19-May-2017,1,21,stim.wav,1,7,1004,7.214862419395599,0,4.781001985908771
8,19-May-2017,1,21,stim.wav,1,8,1199,0.5500068704803689,0,4.781001985908771
8,19-May-2017,1,21,stim.wav,1,9,1416,-5.513196583891093,0,4.781001985908771
8,19-May-2017,1,21,stim.wav,1,10,1657,2.298952539517603,0,4.781001985908771
8,19-May-2017,1,21,stim.wav,1,11,1926,3.390142960579701,0,4.781001985908771
8,19-May-2017,1,21,stim.wav,1,12,2226,-1.5514888827184783,0,4.781001985908771
8,19-May-2017,1,21,stim.wav,1,13,2560,0.04440764184832377,0,4.781001985908771
8,19-May-2017,1,21,stim.wav,1,14,2932,-2.568840404201244,0,4.781001985908771
8,19-May-2017,1,21,stim.wav,1,15,3346,0.8596201316592675,0,4.781001985908771
8,19-May-2017,1,21,stim.wav,1,16,3808,0.8938993885656261,0,4.781001985908771
8,19-May-2017,1,21,stim.wav,1,17,4322,-2.452010416093016,0,4.781001985908771
8,19-May-2017,1,21,stim.wav,1,18,4895,2.2121207389958144,0,4.781001985908771
8,19-May-2017,1,21,stim.wav,1,19,5534,0.7173659105812322,0,4.781001985908771
8,19-May-2017,1,21,stim.wav,1,20,6245,8.159775241533607,0,4.781001985908771
8,19-May-2017,1,21,stim.wav,1,21,7037,2.86665470633203,0,4.781001985908771
8,19-May-2017,1,21,stim.wav,1,22,7920,-1.7032193700199119,0,4.781001985908771
8,19-May-2017,1,21,stim.wav,1,23,8904,-6.772020284493802,0,4.781001985908771
8,19-May-2017,1,21,stim.wav,1,24,10000,-0.7438378631949482,0,4.781001985908771
8,19-May-2017,1,22,stim.wav,0,0,100,5.6324000792133875,1,3.62812156293244
8,19-May-2017,1,22,stim.wav,0,1,191,0.6248690698978184,1,3.62812156293244
8,19-May-2017,1,22,stim.wav,0,2,293,-9.796921443401063,1,3.62812156293244
8,19-May-2017,1,22,stim.wav,0,3,406,-0.1830238857521682,1,3.62812156293244
8,19-May-2017,1,22,stim.wav,0,4,533,4.443320176317431,1,3.62812156293244
8,19-May-2017,1,22,stim.wav,0,5,673,-1.5722823446543033,1,3.62812156293244
8,19-May-2017,1,22,stim.wav,0,6,830,3.2214816919494957,1,3.62812156293244
8,19-May-2017,1,22,stim.wav,0,7,1004,-6.085676961431466,1,3.62812156293244
8,19-May-2017,1,22,stim.wav,0,8,1199,-2.5919989012989135,1,3.62812156293244
8,19-May-2017,1,22,stim.wav,0,9,1416,-1.8258452192566912,1,3.62812156293244
8,19-May-2017,1,22,stim.wav,0,10,1657,6.101300699669321,1,3.62812156293244
8,19-May-2017,1,22,stim.wav,0,11,1926,-2.423942194104314,1,3.62812156293244
8,19-May-2017,1,22,stim.wav,0,12,2226,-2.623021676374923,1,3.62812156293244
8,19-May-2017,1,22,stim.wav,0,13,2560,-1.9947745703227973,1,3.62812156293244
8,19-May-2017,1,22,stim.wav,0,14,2932,-1.284179997419407,1,3.62812156293244
8,19-May-2017,1,22,stim.wav,0,15,3346,-4.866401433622109,1,3.62812156293244
8,19-May-2017,1,22,stim.wav,0,16,3808,-7.168735991457345,1,3.62812156293244
8,19-May-2017,1,22,stim.wav,0,17,4322,-1.1816284315308554,1,3.62812156293244
8,19-May-2017,1,22,stim.wav,0,18,4895,6.735047152088982,1,3.62812156293244
8,19-May-2017,1,22,stim.wav,0,19,5534,-4.577248032689808,1,3.62812156293244
8,19-May-2017,1,22,stim.wav,0,20,6245,2.2172659095016996,1,3.62812156293244
8,19-May-2017,1,22,stim.wav,0,21,7037,-0.6034197162024633,1,3.62812156293244
8,19-May-2017,1,22,stim.wav,0,22,7920,2.4396169190727255,1,3.62812156293244
8,19-May-2017,1,22,stim.wav,0,23,8904,-6.969508619453977,1,3.62812156293244
8,19-May-2017,1,22,stim.wav,0,24,10000,-1.4784834583610305,1,3.62812156293244
8,19-May-2017,1,22,stim.wav,1,0,100,7.910450910834084,0,3.62812156293244
8,19-May-2017,1,22,stim.wav,1,1,191,4.4062919032818915,0,3.62812156293244
8,19-May-2017,1,22,stim.wav,1,2,293,2.5187487990175406,0,3.62812156293244
8,19-May-2017,1,22,stim.wav,1,3,406,-9.177470002736658,0,3.62812156293244
8,19-May-2017,1,22,stim.wav,1,4,533,-5.974825843746641,0,3.62812156293244
8,19-May-2017,1,22,stim.wav,1,5,673,0.6256969788495095,0,3.62812156293244
8,19-May-2017,1,22,stim.wav,1,6,830,7.258588351464638,0,3.62812156293244
8,19-May-2017,1,22,stim.wav,1,7,1004,-0.5794232861701025,0,3.62812156293244
8,19-May-2017,1,22,stim.wav,1,8,1199,-6.598316048884401,0,3.62812156293244
8,19-May-2017,1,22,stim.wav,1,9,1416,3.1561738122966987,0,3.62812156293244
8,19-May-2017,1,22,stim.wav,1,10,1657,6.957272334168262,0,3.62812156293244
8,19-May-2017,1,22,stim.wav,1,11,1926,2.344230408094657,0,3.62812156293244
8,19-May-2017,1,22,stim.wav,1,12,2226,3.295704620099883,0,3.62812156293244
8,19-May-2017,1,22,stim.wav,1,13,2560,-0.9294065167171888,0,3.62812156293244
8,19-May-2017,1,22,stim.wav,1,14,2932,2.562742133565374,0,3.62812156293244
8,19-May-2017,1,22,stim.wav,1,15,3346,5.962828549208302,0,3.62812156293244
8,19-May-2017,1,22,stim.wav,1,16,3808,-7.708002978255152,0,3.62812156293244
8,19-May-2017,1,22,stim.wav,1,17,4322,-1.5539631620051784,0,3.62812156293244
8,19-May-2017,1,22,stim.wav,1,18,4895,0.8759326753613818,0,3.62812156293244
8,19-May-2017,1,22,stim.wav,1,19,5534,-2.217145903849547,0,3.62812156293244
8,19-May-2017,1,22,stim.wav,1,20,6245,-1.8965830119432237,0,3.62812156293244
8,19-May-2017,1,22,stim.wav,1,21,7037,5.096643824592846,0,3.62812156293244
8,19-May-2017,1,22,stim.wav,1,22,7920,0.3322721107223896,0,3.62812156293244
8,19-May-2017,1,22,stim.wav,1,23,8904,-4.021508647275148,0,3.62812156293244
8,19-May-2017,1,22,stim.wav,1,24,10000,-4.1969945417938765,0,3.62812156293244
8,19-May-2017,1,23,stim.wav,0,0,100,-1.0433280988970033,1,2.5206614906460447
8,19-May-2017,1,23,stim.wav,0,1,191,2.4046531531273003,1,2.5206614906460447
8,19-May-2017,1,23,stim.wav,0,2,293,-8.428753947110703,1,2.5206614906460447
8,19-May-2017,1,23,stim.wav,0,3,406,-7.462984247575452,1,2.5206614906460447
8,19-May-2017,1,23,stim.wav,0,4,533,-0.23766110913264135,1,2.5206614906460447
8,19-May-2017,1,23,stim.wav,0,5,673,4.58772790310719,1,2.5206614906460447
8,19-May-2017,1,23,stim.wav,0,6,830,-4.814499545041964,1,2.5206614906460447
8,19-May-2017,1,23,stim.wav,0,7,1004,-1.197176975285636,1,2.5206614906460447
8,19-May-2017,1,23,stim.wav,0,8,1199,3.0078131938598904,1,2.5206614906460447
8,19-May-2017,1,23,stim.wav,0,9,1416,-7.083865355104773,1,2.5206614906460447
8,19-May-2017,1,23,stim.wav,0,10,1657,2.6918109812470723,1,2.5206614906460447
8,19-May-2017,1,23,stim.wav,0,11,1926,-3.6194210117529844,1,2.5206614906460447
8,19-May-2017,1,23,stim.wav,0,12,2226,-1.0729639609678434,1,2.5206614906460447
8,19-May-2017,1,23,stim.wav,0,13,2560,-6.874598220535858,1,2.5206614906460447
8,19-May-2017,1,23,stim.wav,0,14,2932,-3.052529053029427,1,2.5206614906460447
8,19-May-2017,1,23,stim.wav,0,15,3346,-1.796787929482354,1,2.5206614906460447
8,19-May-2017,1,23,stim.wav,0,16,3808,-9.49126922035347,1,2.5206614906460447
8,19-May-2017,1,23,stim.wav,0,17,4322,3.1206401169063764,1,2.5206614906460447
8,19-May-2017,1,23,stim.wav,0,18,4895,-1.9346907367466868,1,2.5206614906460447
8,19-May-2017,1,23,stim.wav,0,19,5534,5.161223822358277,1,2.5206614906460447
8,19-May-2017,1,23,stim.wav,0,20,6245,3.1519289661815857,1,2.5206614906460447
8,19-May-2017,1,23,stim.wav,0,21,7037,-3.4644544650468037,1,2.5206614906460447
8,19-May-2017,1,23,stim.wav,0,22,7920,8.22486738331228,1,2.5206614906460447
8,19-May-2017,1,23,stim.wav,0,23,8904,0.9210706398454614,1,2.5206614906460447
8,19-May-2017,1,23,stim.wav,0,24,10000,-8.121147933472514,1,2.5206614906460447
8,19-May-2017,1,23,stim.wav,1,0,100,4.707198339362199,0,2.5206614906460447
8,19-May-2017,1,23,stim.wav,1,1,191,-2.2563552984329,0,2.5206614906460447
8,19-May-2017,1,23,stim.wav,1,2,293,2.082989166634543,0,2.5206614906460447
8,19-May-2017,1,23,stim.wav,1,3,406,4.194561293909601,0,2.5206614906460447
8,19-May-2017,1,23,stim.wav,1,4,533,5.430497934887777,0,2.5206614906460447
8,19-May-2017,1,23,stim.wav,1,5,673,1.0226845176224812,0,2.5206614906460447
8,19-May-2017,1,23,stim.wav,1,6,830,-2.5712330324561385,0,2.5206614906460447
8,19-May-2017,1,23,stim.wav,1,7,1004,-6.08583362550276,0,2.5206614906460447
8,19-May-2017,1,23,stim.wav,1,8,1199,0.8077971363938447,0,2.5206614906460447
8,19-May-2017,1,23,stim.wav,1,9,1416,2.0900716454908803,0,2.5206614906460447
8,19-May-2017,1,23,stim.wav,1,10,1657,11.238314658986843,0,2.5206614906460447
8,19-May-2017,1,23,stim.wav,1,11,1926,-6.443135805438063,0,2.5206614906460447
8,19-May-2017,1,23,stim.wav,1,12,2226,-7.331137419604151,0,2.5206614906460447
8,19-May-2017,1,23,stim.wav,1,13,2560,1.9453261276586111,0,2.5206614906460447
8,19-May-2017,1,23,stim.wav,1,14,2932,-1.5120794458698483,0,2.5206614906460447
8,19-May-2017,1,23,stim.wav,1,15,3346,3.4911767416173447,0,2.5206614906460447
8,19-May-2017,1,23,stim.wav,1,16,3808,-8.430683469904139,0,2.5206614906460447
8,19-May-2017,1,23,stim.wav,1,17,4322,4.169371142240764,0,2.5206614906460447
8,19-May-2017,1,23,stim.wav,1,18,4895,-4.49860510581905,0,2.5206614906460447
8,19-May-2017,1,23,stim.wav,1,19,5534,3.2114100830927312,0,2.5206614906460447
8,19-May-2017,1,23,stim.wav,1,20,6245,5.307992351779248,0,2.5206614906460447
8,19-May-2017,1,23,stim.wav,1,21,7037,-5.483130472157262,0,2.5206614906460447
8,19-May-2017,1,23,stim.wav,1,22,7920,-0.4097974718966357,0,2.5206614906460447
8,19-May-2017,1,23,stim.wav,1,23,8904,0.48464951116681154,0,2.5206614906460447
8,19-May-2017,1,23,stim.wav,1,24,10000,0.01679819687563181,0,2.5206614906460447
8,19-May-2017,1,24,stim.wav,0,0,100,-3.1569238840379183,1,4.201088230112261
8,19-May-2017,1,24,stim.wav,0,1,191,-3.955997616612944,1,4.201088230112261
8,19-May-2017,1,24,stim.wav,0,2,293,-0.8811732829697023,1,4.201088230112261
8,19-May-2017,1,24,stim.wav,0,3,406,7.445440631456757,1,4.201088230112261
8,19-May-2017,1,24,stim.wav,0,4,533,-3.216733148353141,1,4.201088230112261
8,19-May-2017,1,24,stim.wav,0,5,673,-7.085915890734657,1,4.201088230112261
8,19-May-2017,1,24,stim.wav,0,6,830,1.6053037425305412,1,4.201088230112261
8,19-May-2017,1,24,stim.wav,0,7,1004,-6.603544518932043,1,4.201088230112261
8,19-May-2017,1,24,stim.wav,0,8,1199,-1.4084247680551996,1,4.201088230112261
8,19-May-2017,1,24,stim.wav,0,9,1416,2.4369387620277854,1,4.201088230112261
8,19-May-2017,1,24,stim.wav,0,10,1657,1.6244746810041077,1,4.201088230112261
8,19-May-2017,1,24,stim.wav,0,11,1926,-10.217457684597251,1,4.201088230112261
8,19-May-2017,1,24,stim.wav,0,12,2226,1.7290096284686427,1,4.201088230112261
8,19-May-2017,1,24,stim.wav,0,13,2560,-0.011413015654364441,1,4.201088230112261
8,19-May-2017,1,24,stim.wav,0,14,2932,4.640759388856525,1,4.201088230112261
8,19-May-2017,1,24,stim.wav,0,15,3346,-0.44044009521494115,1,4.201088230112261
8,19-May-2017,1,24,stim.wav,0,16,3808,-8.142395437163865,1,4.201088230112261
8,19-May-2017,1,24,stim.wav,0,17,4322,-5.882528218356667,1,4.201088230112261
8,19-May-2017,1,24,stim.wav,0,18,4895,4.337190765952984,1,4.201088230112261
8,19-May-2017,1,24,stim.wav,0,19,5534,2.0244113671996335,1,4.201088230112261
8,19-May-2017,1,24,stim.wav,0,20,6245,-3.4491200806672766,1,4.201088230112261
8,19-May-2017,1,24,stim.wav,0,21,7037,3.4331974123384565,1,4.201088230112261
8,19-May-2017,1,24,stim.wav,0,22,7920,-4.5304843466290725,1,4.201088230112261
8,19-May-2017,1,24,stim.wav,0,23,8904,11.315280585510305,1,4.201088230112261
8,19-May-2017,1,24,stim.wav,0,24,10000,3.1392342014821644,1,4.201088230112261
8,19-May-2017,1,24,stim.wav,1,0,100,3.0695276166450416,0,4.201088230112261
8,19-May-2017,1,24,stim.wav,1,1,191,5.41709804704192,0,4.201088230112261
8,19-May-2017,1,24,stim.wav,1,2,293,10.51958447613072,0,4.201088230112261
8,19-May-2017,1,24,stim.wav,1,3,406,-9.878910689193937,0,4.201088230112261
8,19-May-2017,1,24,stim.wav,1,4,533,2.850915623881816,0,4.201088230112261
8,19-May-2017,1,24,stim.wav,1,5,673,-9.58279373403967,0,4.201088230112261
8,19-May-2017,1,24,stim.wav,1,6,830,-3.505378626989415,0,4.201088230112261
8,19-May-2017,1,24,stim.wav,1,7,1004,-4.46959157060114,0,4.201088230112261
8,19-May-2017,1,24,stim.wav,1,8,1199,0.4600751689393757,0,4.201088230112261
8,19-May-2017,1,24,stim.wav,1,9,1416,4.747531624105933,0,4.201088230112261
8,19-May-2017,1,24,stim.wav,1,10,1657,1.0359862227666397,0,4.201088230112261
8,19-May-2017,1,24,stim.wav,1,11,1926,-4.497673370985691,0,4.201088230112261
8,19-May-2017,1,24,stim.wav,1,12,2226,-0.9937036959608093,0,4.201088230112261
8,19-May-2017,1,24,stim.wav,1,13,2560,-5.47838032215188,0,4.201088230112261
8,19-May-2017,1,24,stim.wav,1,14,2932,0.9066334567999697,0,4.201088230112261
8,19-May-2017,1,24,stim.wav,1,15,3346,3.2938809879196516,0,4.201088230112261
8,19-May-2017,1,24,stim.wav,1,16,3808,0.242722672492085,0,4.201088230112261
8,19-May-2017,1,24,stim.wav,1,17,4322,-2.201757888666359,0,4.201088230112261
8,19-May-2017,1,24,stim.wav,1,18,4895,6.916288287885032,0,4.201088230112261
8,19-May-2017,1,24,stim.wav,1,19,5534,-3.573068013729265,0,4.201088230112261
8,19-May-2017,1,24,stim.wav,1,20,6245,1.7263512800814764,0,4.201088230112261
8,19-May-2017,1,24,stim.wav,1,21,7037,0.7762595002788082,0,4.201088230112261
8,19-May-2017,1,24,stim.wav,1,22,7920,-4.40306057382542,0,4.201088230112261
8,19-May-2017,1,24,stim.wav,1,23,8904,0.5739212270733489,0,4.201088230112261
8,19-May-2017,1,24,stim.wav,1,24,10000,-0.8699354138790684,0,4.201088230112261
8,19-May-2017,1,25,stim.wav,0,0,100,1.4505945574192183,0,1.830612415949533
8,19-May-2017,1,25,stim.wav,0,1,191,6.239970579218898,0,1.830612415949533
8,19-May-2017,1,25,stim.wav,0,2,293,-10.87382346355421,0,1.830612415949533
8,19-May-2017,1,25,stim.wav,0,3,406,-0.35916343577893806,0,1.830612415949533
8,19-May-2017,1,25,stim.wav,0,4,533,-7.254738525466661,0,1.830612415949533
8,19-May-2017,1,25,stim.wav,0,5,673,10.777939907738759,0,1.830612415949533
8,19-May-2017,1,25,stim.wav,0,6,830,-4.3061348449119965,0,1.830612415949533
8,19-May-2017,1,25,stim.wav,0,7,1004,-0.061372398095434044,0,1.830612415949533
8,19-May-2017,1,25,stim.wav,0,8,1199,7.425295977819772,0,1.830612415949533
8,19-May-2017,1,25,stim.wav,0,9,1416,5.529344785637747,0,1.830612415949533
8,19-May-2017,1,25,stim.wav,0,10,1657,-2.650501938215525,0,1.830612415949533
8,19-May-2017,1,25,stim.wav,0,11,1926,0.03150727965286412,0,1.830612415949533
8,19-May-2017,1,25,stim.wav,0,12,2226,-2.12967372045369,0,1.830612415949533
8,19-May-2017,1,25,stim.wav,0,13,2560,-1.2628904904726126,0,1.830612415949533
8,19-May-2017,1,25,stim.wav,0,14,2932,-1.0277728813793203,0,1.830612415949533
8,19-May-2017,1,25,stim.wav,0,15,3346,1.3339089434538693,0,1.830612415949533
8,19-May-2017,1,25,stim.wav,0,16,3808,-0.39637458355616,0,1.830612415949533
8,19-May-2017,1,25,stim.wav,0,17,4322,-5.175120144963557,0,1.830612415949533
8,19-May-2017,1,25,stim.wav,0,18,4895,-0.0369933477686405,0,1.830612415949533
8,19-May-2017,1,25,stim.wav,0,19,5534,-1.6382144378253916,0,1.830612415949533
8,19-May-2017,1,25,stim.wav,0,20,6245,4.945667009851168,0,1.830612415949533
8,19-May-2017,1,25,stim.wav,0,21,7037,-3.724497894498821,0,1.830612415949533
8,19-May-2017,1,25,stim.wav,0,22,7920,0.5004656703906036,0,1.830612415949533
8,19-May-2017,1,25,stim.wav,0,23,8904,-5.918258589750059,0,1.830612415949533
8,19-May-2017,1,25,stim.wav,0,24,10000,-2.1395593330045433,0,1.830612415949533
8,19-May-2017,1,25,stim.wav,1,0,100,-2.4616117102178303,1,1.830612415949533
8,19-May-2017,1,25,stim.wav,1,1,191,0.6631647545968667,1,1.830612415949533
8,19-May-2017,1,25,stim.wav,1,2,293,-0.2580278185875511,1,1.830612415949533
8,19-May-2017,1,25,stim.wav,1,3,406,1.3498183750675286,1,1.830612415949533
8,19-May-2017,1,25,stim.wav,1,4,533,-0.8613837085586136,1,1.830612415949533
8,19-May-2017,1,25,stim.wav,1,5,673,-2.8157620994500743,1,1.830612415949533
8,19-May-2017,1,25,stim.wav,1,6,830,0.24102117157597816,1,1.830612415949533
8,19-May-2017,1,25,stim.wav,1,7,1004,3.5437598623568904,1,1.830612415949533
8,19-May-2017,1,25,stim.wav,1,8,1199,3.6263410489660686,1,1.830612415949533
8,19-May-2017,1,25,stim.wav,1,9,1416,-7.980825984921269,1,1.830612415949533
8,19-May-2017,1,25,stim.wav,1,10,1657,-0.884016487467113,1,1.830612415949533
8,19-May-2017,1,25,stim.wav,1,11,1926,4.033253180014508,1,1.830612415949533
8,19-May-2017,1,25,stim.wav,1,12,2226,-4.809391983628093,1,1.830612415949533
8,19-May-2017,1,25,stim.wav,1,13,2560,-5.905792780688184,1,1.830612415949533
8,19-May-2017,1,25,stim.wav,1,14,2932,7.464072283987288,1,1.830612415949533
8,19-May-2017,1,25,stim.wav,1,15,3346,-1.5320243420797235,1,1.830612415949533
8,19-May-2017,1,25,stim.wav,1,16,3808,2.367852093516478,1,1.830612415949533
8,19-May-2017,1,25,stim.wav,1,17,4322,-5.198306015434944,1,1.830612415949533
8,19-May-2017,1,25,stim.wav,1,18,4895,-1.8122328149008469,1,1.830612415949533
8,19-May-2017,1,25,stim.wav,1,19,5534,-2.5400507461356874,1,1.830612415949533
8,19-May-2017,1,25,stim.wav,1,20,6245,-4.024701814630461,1,1.830612415949533
8,19-May-2017,1,25,stim.wav,1,21,7037,9.024162426700515,1,1.830612415949533
8,19-May-2017,1,25,stim.wav,1,22,7920,3.006634692493853,1,1.830612415949533
8,19-May-2017,1,25,stim.wav,1,23,8904,2.1008923659223733,1,1.830612415949533
8,19-May-2017,1,25,stim.wav,1,24,10000,10.331743948161716,1,1.830612415949533
8,19-May-2017,1,26,stim.wav,0,0,100,2.9687663878991843,1,12.130744980919197
8,19-May-2017,1,26,stim.wav,0,1,191,-5.907173703657877,1,12.130744980919197
8,19-May-2017,1,26,stim.wav,0,2,293,5.7200445399055155,1,12.130744980919197
8,19-May-2017,1,26,stim.wav,0,3,406,-8.603299054540997,1,12.130744980919197
8,19-May-2017,1,26,stim.wav,0,4,533,-2.263389504780512,1,12.130744980919197
8,19-May-2017,1,26,stim.wav,0,5,673,-2.3408270437170184,1,12.130744980919197
8,19-May-2017,1,26,stim.wav,0,6,830,-1.698108547413245,1,12.130744980919197
8,19-May-2017,1,26,stim.wav,0,7,1004,-1.313234166631187,1,12.130744980919197
8,19-May-2017,1,26,stim.wav,0,8,1199,-1.1009004510633709,1,12.130744980919197
8,19-May-2017,1,26,stim.wav,0,9,1416,-1.3633813821447314,1,12.130744980919197
8,19-May-2017,1,26,stim.wav,0,10,1657,0.11017138529854316,1,12.130744980919197
8,19-May-2017,1,26,stim.wav,0,11,1926,0.884713939908562,1,12.130744980919197
8,19-May-2017,1,26,stim.wav,0,12,2226,-1.9903155550738512,1,12.130744980919197
8,19-May-2017,1,26,stim.wav,0,13,2560,1.9361655314132344,1,12.130744980919197
8,19-May-2017,1,26,stim.wav,0,14,2932,-9.859187148807443,1,12.130744980919197
8,19-May-2017,1,26,stim.wav,0,15,3346,0.005659390040226954,1,12.130744980919197
8,19-May-2017,1,26,stim.wav,0,16,3808,1.0514051372108626,1,12.130744980919197
8,19-May-2017,1,26,stim.wav,0,17,4322,-4.521898163901309,1,12.130744980919197
8,19-May-2017,1,26,stim.wav,0,18,4895,0.8708906926721824,1,12.130744980919197
8,19-May-2017,1,26,stim.wav,0,19,5534,0.8485372421547422,1,12.130744980919197
8,19-May-2017,1,26,stim.wav,0,20,6245,3.047973831546624,1,12.130744980919197
8,19-May-2017,1,26,stim.wav,0,21,7037,-0.17272031851988123,1,12.130744980919197
8,19-May-2017,1,26,stim.wav,0,22,7920,-1.4599003447246468,1,12.130744980919197
8,19-May-2017,1,26,stim.wav,0,23,8904,1.6211150722431187,1,12.130744980919197
8,19-May-2017,1,26,stim.wav,0,24,10000,-2.904001238727468,1,12.130744980919197
8,19-May-2017,1,26,stim.wav,1,0,100,-2.525339389084333,0,12.130744980919197
8,19-May-2017,1,26,stim.wav,1,1,191,7.346796881621155,0,12.130744980919197
8,19-May-2017,1,26,stim.wav,1,2,293,-5.844906028605398,0,12.130744980919197
8,19-May-2017,1,26,stim.wav,1,3,406,7.372078258845378,0,12.130744980919197
8,19-May-2017,1,26,stim.wav,1,4,533,-0.016248309343747512,0,12.130744980919197
8,19-May-2017,1,26,stim.wav,1,5,673,-4.78850591723779,0,12.130744980919197
8,19-May-2017,1,26,stim.wav,1,6,830,4.765322221812831,0,12.130744980919197
8,19-May-2017,1,26,stim.wav,1,7,1004,-4.029959900254132,0,12.130744980919197
8,19-May-2017,1,26,stim.wav,1,8,1199,1.3395791917825008,0,12.130744980919197
8,19-May-2017,1,26,stim.wav,1,9,1416,6.549847893258082,0,12.130744980919197
8,19-May-2017,1,26,stim.wav,1,10,1657,-6.73414525825868,0,12.130744980919197
8,19-May-2017,1,26,stim.wav,1,11,1926,0.3504045492758042,0,12.130744980919197
8,19-May-2017,1,26,stim.wav,1,12,2226,-10.225771068152866,0,12.130744980919197
8,19-May-2017,1,26,stim.wav,1,13,2560,-4.863794780085064,0,12.130744980919197
8,19-May-2017,1,26,stim.wav,1,14,2932,-0.7701974363807962,0,12.130744980919197
8,19-May-2017,1,26,stim.wav,1,15,3346,-2.8668145657666293,0,12.130744980919197
8,19-May-2017,1,26,stim.wav,1,16,3808,-1.106174066048783,0,12.130744980919197
8,19-May-2017,1,26,stim.wav,1,17,4322,0.790051007296209,0,12.130744980919197
8,19-May-2017,1,26,stim.wav,1,18,4895,-0.6960781799917705,0,12.130744980919197
8,19-May-2017,1,26,stim.wav,1,19,5534,3.1299339837708584,0,12.130744980919197
8,19-May-2017,1,26,stim.wav,1,20,6245,-6.050734802424308,0,12.130744980919197
8,19-May-2017,1,26,stim.wav,1,21,7037,2.9238318724619097,0,12.130744980919197
8,19-May-2017,1,26,stim.wav,1,22,7920,-1.5223701935358613,0,12.130744980919197
8,19-May-2017,1,26,stim.wav,1,23,8904,-3.6147464821762565,0,12.130744980919197
8,19-May-2017,1,26,stim.wav,1,24,10000,0.12728645777746134,0,12.130744980919197
8,19-May-2017,1,27,stim.wav,0,0,100,-2.173769193744926,1,6.123736313735955
8,19-May-2017,1,27,stim.wav,0,1,191,2.1508152034167956,1,6.123736313735955
8,19-May-2017,1,27,stim.wav,0,2,293,-6.474200901402423,1,6.123736313735955
8,19-May-2017,1,27,stim.wav,0,3,406,-3.5228496710140114,1,6.123736313735955
8,19-May-2017,1,27,stim.wav,0,4,533,2.189133974788115,1,6.123736313735955
8,19-May-2017,1,27,stim.wav,0,5,673,-0.5246273320567872,1,6.123736313735955
8,19-May-2017,1,27,stim.wav,0,6,830,-0.3779648086031192,1,6.123736313735955
8,19-May-2017,1,27,stim.wav,0,7,1004,-4.136847987999209,1,6.123736313735955
