subj,date,session,trial,stim,stim_order,filter,filter_freq,filter_gain,response,rt
4,19-May-2017,1,1,stim.wav,0,0,100,-4.766205001888397,1,4.381728053805615
4,19-May-2017,1,1,stim.wav,0,1,191,6.426982424895922,1,4.381728053805615
4,19-May-2017,1,1,stim.wav,0,2,293,-3.2456870689289103,1,4.381728053805615
4,19-May-2017,1,1,stim.wav,0,3,406,-4.725427230419502,1,4.381728053805615
4,19-May-2017,1,1,stim.wav,0,4,533,-6.345694897200412,1,4.381728053805615
4,19-May-2017,1,1,stim.wav,0,5,673,0.2900499245816514,1,4.381728053805615
4,19-May-2017,1,1,stim.wav,0,6,830,-2.852169150519309,1,4.381728053805615
4,19-May-2017,1,1,stim.wav,0,7,1004,-0.7813465801134595,1,4.381728053805615
4,19-May-2017,1,1,stim.wav,0,8,1199,0.1199298161034747,1,4.381728053805615
4,19-May-2017,1,1,stim.wav,0,9,1416,-0.19891639135391398,1,4.381728053805615
4,19-May-2017,1,1,stim.wav,0,10,1657,3.2463110602850778,1,4.381728053805615
4,19-May-2017,1,1,stim.wav,0,11,1926,9.579742327804386,1,4.381728053805615
4,19-May-2017,1,1,stim.wav,0,12,2226,-3.0892156782031326,1,4.381728053805615
4,19-May-2017,1,1,stim.wav,0,13,2560,4.825291286465441,1,4.381728053805615
4,19-May-2017,1,1,stim.wav,0,14,2932,-8.18108599484222,1,4.381728053805615
4,19-May-2017,1,1,stim.wav,0,15,3346,0.566310943342376,1,4.381728053805615
4,19-May-2017,1,1,stim.wav,0,16,3808,-4.23010286971192,1,4.381728053805615
4,19-May-2017,1,1,stim.wav,0,17,4322,-0.23733023917614593,1,4.381728053805615
4,19-May-2017,1,1,stim.wav,0,18,4895,5.87758455294469,1,4.381728053805615
4,19-May-2017,1,1,stim.wav,0,19,5534,-7.270558797798634,1,4.381728053805615
4,19-May-2017,1,1,stim.wav,0,20,6245,4.127487786521883,1,4.381728053805615
4,19-May-2017,1,1,stim.wav,0,21,7037,3.7763181145315414,1,4.381728053805615
4,19-May-2017,1,1,stim.wav,0,22,7920,-5.7509692610430125,1,4.381728053805615
4,19-May-2017,1,1,stim.wav,0,23,8904,-2.8447273968327775,1,4.381728053805615
4,19-May-2017,1,1,stim.wav,0,24,10000,-2.832231533720177,1,4.381728053805615
4,19-May-2017,1,1,stim.wav,1,0,100,1.8305302425858205,0,4.381728053805615
4,19-May-2017,1,1,stim.wav,1,1,191,-1.2018603089562243,0,4.381728053805615
4,19-May-2017,1,1,stim.wav,1,2,293,-3.702215080163429,0,4.381728053805615
4,19-May-2017,1,1,stim.wav,1,3,406,-0.7574943856975845,0,4.381728053805615
4,19-May-2017,1,1,stim.wav,1,4,533,-0.009657771202796485,0,4.381728053805615
4,19-May-2017,1,1,stim.wav,1,5,673,2.9432952854652634,0,4.381728053805615
4,19-May-2017,1,1,stim.wav,1,6,830,0.5815656931005072,0,4.381728053805615
4,19-May-2017,1,1,stim.wav,1,7,1004,-1.0285088428403555,0,4.381728053805615
4,19-May-2017,1,1,stim.wav,1,8,1199,-7.9216978659230595,0,4.381728053805615
4,19-May-2017,1,1,stim.wav,1,9,1416,-5.781916315412927,0,4.381728053805615
4,19-May-2017,1,1,stim.wav,1,10,1657,-1.3411450968650298,0,4.381728053805615
4,19-May-2017,1,1,stim.wav,1,11,1926,-1.7857475377166847,0,4.381728053805615
4,19-May-2017,1,1,stim.wav,1,12,2226,0.7110649997385655,0,4.381728053805615
4,19-May-2017,1,1,stim.wav,1,13,2560,3.3373463911119106,0,4.381728053805615
4,19-May-2017,1,1,stim.wav,1,14,2932,-4.450862098707284,0,4.381728053805615
4,19-May-2017,1,1,stim.wav,1,15,3346,-1.1932219025619952,0,4.381728053805615
4,19-May-2017,1,1,stim.wav,1,16,3808,-3.9928440281489843,0,4.381728053805615
4,19-May-2017,1,1,stim.wav,1,17,4322,-0.7167103333435133,0,4.381728053805615
4,19-May-2017,1,1,stim.wav,1,18,4895,-7.395462440449869,0,4.381728053805615
4,19-May-2017,1,1,stim.wav,1,19,5534,-2.610870133841451,0,4.381728053805615
4,19-May-2017,1,1,stim.wav,1,20,6245,-5.0217984383324685,0,4.381728053805615
4,19-May-2017,1,1,stim.wav,1,21,7037,-0.8732879940092331,0,4.381728053805615
4,19-May-2017,1,1,stim.wav,1,22,7920,1.5290597378879442,0,4.381728053805615
4,19-May-2017,1,1,stim.wav,1,23,8904,-5.122808817465023,0,4.381728053805615
4,19-May-2017,1,1,stim.wav,1,24,10000,-3.7420074417198674,0,4.381728053805615
4,19-May-2017,1,2,stim.wav,0,0,100,-4.209195003774437,0,2.466988811593112
4,19-May-2017,1,2,stim.wav,0,1,191,4.772372242249586,0,2.466988811593112
4,19-May-2017,1,2,stim.wav,0,2,293,-3.912116760598212,0,2.466988811593112
4,19-May-2017,1,2,stim.wav,0,3,406,2.0168328676712157,0,2.466988811593112
4,19-May-2017,1,2,stim.wav,0,4,533,-10.578678793385015,0,2.466988811593112
4,19-May-2017,1,2,stim.wav,0,5,673,-6.06480384837249,0,2.466988811593112
4,19-May-2017,1,2,stim.wav,0,6,830,2.3337634579562123,0,2.466988811593112
4,19-May-2017,1,2,stim.wav,0,7,1004,-0.7376735245955462,0,2.466988811593112
4,19-May-2017,1,2,stim.wav,0,8,1199,0.7297611255447077,0,2.466988811593112
4,19-May-2017,1,2,stim.wav,0,9,1416,-3.667867739366847,0,2.466988811593112
4,19-May-2017,1,2,stim.wav,0,10,1657,11.066062188789585,0,2.466988811593112
4,19-May-2017,1,2,stim.wav,0,11,1926,7.671310119996653,0,2.466988811593112
4,19-May-2017,1,2,stim.wav,0,12,2226,4.707154309616408,0,2.466988811593112
4,19-May-2017,1,2,stim.wav,0,13,2560,5.652269689477405,0,2.466988811593112
4,19-May-2017,1,2,stim.wav,0,14,2932,-5.130225794471814,0,2.466988811593112
4,19-May-2017,1,2,stim.wav,0,15,3346,-0.7157188260352352,0,2.466988811593112
4,19-May-2017,1,2,stim.wav,0,16,3808,-5.226946310025528,0,2.466988811593112
4,19-May-2017,1,2,stim.wav,0,17,4322,-1.604067306312413,0,2.466988811593112
4,19-May-2017,1,2,stim.wav,0,18,4895,0.7859107778456681,0,2.466988811593112
4,19-May-2017,1,2,stim.wav,0,19,5534,1.3819358576483758,0,2.466988811593112
4,19-May-2017,1,2,stim.wav,0,20,6245,-3.6236214014865413,0,2.466988811593112
4,19-May-2017,1,2,stim.wav,0,21,7037,0.5773733776130836,0,2.466988811593112
4,19-May-2017,1,2,stim.wav,0,22,7920,-10.706829297842557,0,2.466988811593112
4,19-May-2017,1,2,stim.wav,0,23,8904,0.46632966130107595,0,2.466988811593112
4,19-May-2017,1,2,stim.wav,0,24,10000,-4.121972142878562,0,2.466988811593112
4,19-May-2017,1,2,stim.wav,1,0,100,-4.328976261613186,1,2.466988811593112
4,19-May-2017,1,2,stim.wav,1,1,191,0.9850972196385384,1,2.466988811593112
4,19-May-2017,1,2,stim.wav,1,2,293,8.877892992079197,1,2.466988811593112
4,19-May-2017,1,2,stim.wav,1,3,406,1.0010667269673563,1,2.466988811593112
4,19-May-2017,1,2,stim.wav,1,4,533,3.0076556277882327,1,2.466988811593112
4,19-May-2017,1,2,stim.wav,1,5,673,-1.8745583786012812,1,2.466988811593112
4,19-May-2017,1,2,stim.wav,1,6,830,0.9835474559231763,1,2.466988811593112
4,19-May-2017,1,2,stim.wav,1,7,1004,9.087685938561492,1,2.466988811593112
4,19-May-2017,1,2,stim.wav,1,8,1199,5.723061920089636,1,2.466988811593112
4,19-May-2017,1,2,stim.wav,1,9,1416,-1.062219605406062,1,2.466988811593112
4,19-May-2017,1,2,stim.wav,1,10,1657,3.4243787000141017,1,2.466988811593112
4,19-May-2017,1,2,stim.wav,1,11,1926,4.8377237703179645,1,2.466988811593112
4,19-May-2017,1,2,stim.wav,1,12,2226,-3.758287998850058,1,2.466988811593112
4,19-May-2017,1,2,stim.wav,1,13,2560,-0.5431581813336938,1,2.466988811593112
4,19-May-2017,1,2,stim.wav,1,14,2932,4.037325396007627,1,2.466988811593112
4,19-May-2017,1,2,stim.wav,1,15,3346,0.7472021473412377,1,2.466988811593112
4,19-May-2017,1,2,stim.wav,1,16,3808,3.2239327063427363,1,2.466988811593112
4,19-May-2017,1,2,stim.wav,1,17,4322,-4.410882514002503,1,2.466988811593112
4,19-May-2017,1,2,stim.wav,1,18,4895,-3.8233113904787364,1,2.466988811593112
4,19-May-2017,1,2,stim.wav,1,19,5534,4.98754967071589,1,2.466988811593112
4,19-May-2017,1,2,stim.wav,1,20,6245,-12.034080967137763,1,2.466988811593112
4,19-May-2017,1,2,stim.wav,1,21,7037,-7.7921199493063265,1,2.466988811593112
4,19-May-2017,1,2,stim.wav,1,22,7920,2.756971156245137,1,2.466988811593112
4,19-May-2017,1,2,stim.wav,1,23,8904,-8.513791914222482,1,2.466988811593112
4,19-May-2017,1,2,stim.wav,1,24,10000,-0.9600457527441071,1,2.466988811593112
4,19-May-2017,1,3,stim.wav,0,0,100,3.6427759654690828,1,1.5011441561484922
4,19-May-2017,1,3,stim.wav,0,1,191,3.169006525208764,1,1.5011441561484922
4,19-May-2017,1,3,stim.wav,0,2,293,-5.474002188123185,1,1.5011441561484922
4,19-May-2017,1,3,stim.wav,0,3,406,-10.15423825095775,1,1.5011441561484922
4,19-May-2017,1,3,stim.wav,0,4,533,-1.1705074050385609,1,1.5011441561484922
4,19-May-2017,1,3,stim.wav,0,5,673,-6.740944934797694,1,1.5011441561484922
4,19-May-2017,1,3,stim.wav,0,6,830,2.355878849451467,1,1.5011441561484922
4,19-May-2017,1,3,stim.wav,0,7,1004,-5.868363726066356,1,1.5011441561484922
4,19-May-2017,1,3,stim.wav,0,8,1199,-7.611863850360422,1,1.5011441561484922
4,19-May-2017,1,3,stim.wav,0,9,1416,-2.950842251819063,1,1.5011441561484922
4,19-May-2017,1,3,stim.wav,0,10,1657,-3.7246359237955993,1,1.5011441561484922
4,19-May-2017,1,3,stim.wav,0,11,1926,-1.5600407406383074,1,1.5011441561484922
4,19-May-2017,1,3,stim.wav,0,12,2226,6.379419804691448,1,1.5011441561484922
4,19-May-2017,1,3,stim.wav,0,13,2560,3.25545819295425,1,1.5011441561484922
4,19-May-2017,1,3,stim.wav,0,14,2932,-2.8586365790015917,1,1.5011441561484922
4,19-May-2017,1,3,stim.wav,0,15,3346,-1.5179546010855336,1,1.5011441561484922
4,19-May-2017,1,3,stim.wav,0,16,3808,-1.953922197385567,1,1.5011441561484922
4,19-May-2017,1,3,stim.wav,0,17,4322,3.2800110364160573,1,1.5011441561484922
4,19-May-2017,1,3,stim.wav,0,18,4895,-3.156773833407347,1,1.5011441561484922
4,19-May-2017,1,3,stim.wav,0,19,5534,-3.775672745118122,1,1.5011441561484922
4,19-May-2017,1,3,stim.wav,0,20,6245,-2.024347301882642,1,1.5011441561484922
4,19-May-2017,1,3,stim.wav,0,21,7037,5.724614884782238,1,1.5011441561484922
4,19-May-2017,1,3,stim.wav,0,22,7920,8.640521934476814,1,1.5011441561484922
4,19-May-2017,1,3,stim.wav,0,23,8904,3.4769850817766104,1,1.5011441561484922
4,19-May-2017,1,3,stim.wav,0,24,10000,-0.7728417314982688,1,1.5011441561484922
4,19-May-2017,1,3,stim.wav,1,0,100,7.046724452903383,0,1.5011441561484922
4,19-May-2017,1,3,stim.wav,1,1,191,-2.4182074218378613,0,1.5011441561484922
4,19-May-2017,1,3,stim.wav,1,2,293,-1.648005338677132,0,1.5011441561484922
4,19-May-2017,1,3,stim.wav,1,3,406,0.7535286595312952,0,1.5011441561484922
4,19-May-2017,1,3,stim.wav,1,4,533,-0.43440745804379594,0,1.5011441561484922
4,19-May-2017,1,3,stim.wav,1,5,673,-6.453706265646363,0,1.5011441561484922
4,19-May-2017,1,3,stim.wav,1,6,830,-4.2423657789747145,0,1.5011441561484922
4,19-May-2017,1,3,stim.wav,1,7,1004,0.7011888902221912,0,1.5011441561484922
4,19-May-2017,1,3,stim.wav,1,8,1199,-3.1436380678917497,0,1.5011441561484922
4,19-May-2017,1,3,stim.wav,1,9,1416,-4.26514887411191,0,1.5011441561484922
4,19-May-2017,1,3,stim.wav,1,10,1657,-4.1319328669519155,0,1.5011441561484922
4,19-May-2017,1,3,stim.wav,1,11,1926,3.1597147066737863,0,1.5011441561484922
4,19-May-2017,1,3,stim.wav,1,12,2226,5.344849699688074,0,1.5011441561484922
4,19-May-2017,1,3,stim.wav,1,13,2560,3.9902186405393087,0,1.5011441561484922
4,19-May-2017,1,3,stim.wav,1,14,2932,-6.172523351708628,0,1.5011441561484922
4,19-May-2017,1,3,stim.wav,1,15,3346,-4.956880760046628,0,1.5011441561484922
4,19-May-2017,1,3,stim.wav,1,16,3808,9.425692422075077,0,1.5011441561484922
4,19-May-2017,1,3,stim.wav,1,17,4322,11.20961686739854,0,1.5011441561484922
4,19-May-2017,1,3,stim.wav,1,18,4895,3.016433437679348,0,1.5011441561484922
4,19-May-2017,1,3,stim.wav,1,19,5534,2.295797210457644,0,1.5011441561484922
4,19-May-2017,1,3,stim.wav,1,20,6245,-5.081627124631086,0,1.5011441561484922
4,19-May-2017,1,3,stim.wav,1,21,7037,-2.387656841400553,0,1.5011441561484922
4,19-May-2017,1,3,stim.wav,1,22,7920,-2.761270648754648,0,1.5011441561484922
4,19-May-2017,1,3,stim.wav,1,23,8904,-8.755756341050047,0,1.5011441561484922
4,19-May-2017,1,3,stim.wav,1,24,10000,7.70108641854352,0,1.5011441561484922
4,19-May-2017,1,4,stim.wav,0,0,100,-7.558024684020203,0,2.1770700092196167
4,19-May-2017,1,4,stim.wav,0,1,191,0.2687697128750039,0,2.1770700092196167
4,19-May-2017,1,4,stim.wav,0,2,293,-4.249424600389509,0,2.1770700092196167
4,19-May-2017,1,4,stim.wav,0,3,406,4.82805092539103,0,2.1770700092196167
4,19-May-2017,1,4,stim.wav,0,4,533,-1.8481052223584995,0,2.1770700092196167
4,19-May-2017,1,4,stim.wav,0,5,673,-8.469983976381682,0,2.1770700092196167
4,19-May-2017,1,4,stim.wav,0,6,830,-0.7369415615932745,0,2.1770700092196167
4,19-May-2017,1,4,stim.wav,0,7,1004,5.653848515775444,0,2.1770700092196167
4,19-May-2017,1,4,stim.wav,0,8,1199,0.5333315297050614,0,2.1770700092196167
4,19-May-2017,1,4,stim.wav,0,9,1416,-2.082142327754049,0,2.1770700092196167
4,19-May-2017,1,4,stim.wav,0,10,1657,1.1135529182368422,0,2.1770700092196167
4,19-May-2017,1,4,stim.wav,0,11,1926,4.84870837682713,0,2.1770700092196167
4,19-May-2017,1,4,stim.wav,0,12,2226,1.673183258163419,0,2.1770700092196167
4,19-May-2017,1,4,stim.wav,0,13,2560,4.746100798769221,0,2.1770700092196167
4,19-May-2017,1,4,stim.wav,0,14,2932,-2.9408659723030928,0,2.1770700092196167
4,19-May-2017,1,4,stim.wav,0,15,3346,5.505862489207097,0,2.1770700092196167
4,19-May-2017,1,4,stim.wav,0,16,3808,-4.654270397894637,0,2.1770700092196167
4,19-May-2017,1,4,stim.wav,0,17,4322,0.7588056527604603,0,2.1770700092196167
4,19-May-2017,1,4,stim.wav,0,18,4895,-6.690843216887457,0,2.1770700092196167
4,19-May-2017,1,4,stim.wav,0,19,5534,-1.246156384120881,0,2.1770700092196167
4,19-May-2017,1,4,stim.wav,0,20,6245,-2.9298239244301145,0,2.1770700092196167
4,19-May-2017,1,4,stim.wav,0,21,7037,-9.74250729616605,0,2.1770700092196167
4,19-May-2017,1,4,stim.wav,0,22,7920,-0.2600869155982546,0,2.1770700092196167
4,19-May-2017,1,4,stim.wav,0,23,8904,-2.1371201503178594,0,2.1770700092196167
4,19-May-2017,1,4,stim.wav,0,24,10000,-0.0438072476971322,0,2.1770700092196167
4,19-May-2017,1,4,stim.wav,1,0,100,0.6271404916939421,1,2.1770700092196167
4,19-May-2017,1,4,stim.wav,1,1,191,-4.643841185718065,1,2.1770700092196167
4,19-May-2017,1,4,stim.wav,1,2,293,2.353786524578076,1,2.1770700092196167
4,19-May-2017,1,4,stim.wav,1,3,406,2.120851392222147,1,2.1770700092196167
4,19-May-2017,1,4,stim.wav,1,4,533,-4.412327088780901,1,2.1770700092196167
4,19-May-2017,1,4,stim.wav,1,5,673,-4.426903089599079,1,2.1770700092196167
4,19-May-2017,1,4,stim.wav,1,6,830,4.737909316063724,1,2.1770700092196167
4,19-May-2017,1,4,stim.wav,1,7,1004,0.954431129051841,1,2.1770700092196167
4,19-May-2017,1,4,stim.wav,1,8,1199,-4.985862368186298,1,2.1770700092196167
4,19-May-2017,1,4,stim.wav,1,9,1416,2.945032749921338,1,2.1770700092196167
4,19-May-2017,1,4,stim.wav,1,10,1657,-0.5019459704247166,1,2.1770700092196167
4,19-May-2017,1,4,stim.wav,1,11,1926,-0.9034111374295468,1,2.1770700092196167
4,19-May-2017,1,4,stim.wav,1,12,2226,-0.6661674517140125,1,2.1770700092196167
4,19-May-2017,1,4,stim.wav,1,13,2560,-3.4855081863804283,1,2.1770700092196167
4,19-May-2017,1,4,stim.wav,1,14,2932,-5.105374497445194,1,2.1770700092196167
4,19-May-2017,1,4,stim.wav,1,15,3346,-0.9891363239049077,1,2.1770700092196167
4,19-May-2017,1,4,stim.wav,1,16,3808,7.374181769175548,1,2.1770700092196167
4,19-May-2017,1,4,stim.wav,1,17,4322,3.5547446485647782,1,2.1770700092196167
4,19-May-2017,1,4,stim.wav,1,18,4895,-3.8697509268286683,1,2.1770700092196167
4,19-May-2017,1,4,stim.wav,1,19,5534,-2.6684196216030043,1,2.1770700092196167
4,19-May-2017,1,4,stim.wav,1,20,6245,-9.635633661307303,1,2.1770700092196167
4,19-May-2017,1,4,stim.wav,1,21,7037,1.0660023399229501,1,2.1770700092196167
4,19-May-2017,1,4,stim.wav,1,22,7920,9.36438598600992,1,2.1770700092196167
4,19-May-2017,1,4,stim.wav,1,23,8904,-0.8711139326583008,1,2.1770700092196167
4,19-May-2017,1,4,stim.wav,1,24,10000,-11.113765016759176,1,2.1770700092196167
4,19-May-2017,1,5,stim.wav,0,0,100,-2.5545401723572163,1,2.035969505134078
4,19-May-2017,1,5,stim.wav,0,1,191,-8.421864323788,1,2.035969505134078
4,19-May-2017,1,5,stim.wav,0,2,293,-5.706890383343271,1,2.035969505134078
4,19-May-2017,1,5,stim.wav,0,3,406,-1.2198732218799528,1,2.035969505134078
4,19-May-2017,1,5,stim.wav,0,4,533,-11.491451048898275,1,2.035969505134078
4,19-May-2017,1,5,stim.wav,0,5,673,3.7870624336583636,1,2.035969505134078
4,19-May-2017,1,5,stim.wav,0,6,830,1.3397836726269663,1,2.035969505134078
4,19-May-2017,1,5,stim.wav,0,7,1004,-0.7387582843206524,1,2.035969505134078
4,19-May-2017,1,5,stim.wav,0,8,1199,7.5160745933023465,1,2.035969505134078
4,19-May-2017,1,5,stim.wav,0,9,1416,5.8252098667411865,1,2.035969505134078
4,19-May-2017,1,5,stim.wav,0,10,1657,0.6988450179577914,1,2.035969505134078
4,19-May-2017,1,5,stim.wav,0,11,1926,-3.2167727420920285,1,2.035969505134078
4,19-May-2017,1,5,stim.wav,0,12,2226,3.808446724820999,1,2.035969505134078
4,19-May-2017,1,5,stim.wav,0,13,2560,-2.4024041076720506,1,2.035969505134078
4,19-May-2017,1,5,stim.wav,0,14,2932,4.783419266810155,1,2.035969505134078
4,19-May-2017,1,5,stim.wav,0,15,3346,-6.33894046593047,1,2.035969505134078
4,19-May-2017,1,5,stim.wav,0,16,3808,2.0866862021866144,1,2.035969505134078
4,19-May-2017,1,5,stim.wav,0,17,4322,0.7402287312134976,1,2.035969505134078
4,19-May-2017,1,5,stim.wav,0,18,4895,9.440999613860063,1,2.035969505134078
4,19-May-2017,1,5,stim.wav,0,19,5534,3.3137958623310864,1,2.035969505134078
4,19-May-2017,1,5,stim.wav,0,20,6245,-7.885857005239573,1,2.035969505134078
4,19-May-2017,1,5,stim.wav,0,21,7037,11.431686150762266,1,2.035969505134078
4,19-May-2017,1,5,stim.wav,0,22,7920,1.182531485365015,1,2.035969505134078
4,19-May-2017,1,5,stim.wav,0,23,8904,0.13004249982264235,1,2.035969505134078
4,19-May-2017,1,5,stim.wav,0,24,10000,-5.730373582873131,1,2.035969505134078
4,19-May-2017,1,5,stim.wav,1,0,100,-7.980667715272461,0,2.035969505134078
4,19-May-2017,1,5,stim.wav,1,1,191,-2.688906719887016,0,2.035969505134078
4,19-May-2017,1,5,stim.wav,1,2,293,7.211914398768798,0,2.035969505134078
4,19-May-2017,1,5,stim.wav,1,3,406,-2.9023664619009635,0,2.035969505134078
4,19-May-2017,1,5,stim.wav,1,4,533,4.695163265547537,0,2.035969505134078
4,19-May-2017,1,5,stim.wav,1,5,673,-1.7826759472010183,0,2.035969505134078
4,19-May-2017,1,5,stim.wav,1,6,830,-2.9182446832133606,0,2.035969505134078
4,19-May-2017,1,5,stim.wav,1,7,1004,-7.668574509287716,0,2.035969505134078
4,19-May-2017,1,5,stim.wav,1,8,1199,-5.2643426345278534,0,2.035969505134078
4,19-May-2017,1,5,stim.wav,1,9,1416,-7.550757574132082,0,2.035969505134078
4,19-May-2017,1,5,stim.wav,1,10,1657,5.671622091255219,0,2.035969505134078
4,19-May-2017,1,5,stim.wav,1,11,1926,0.2787458589165,0,2.035969505134078
4,19-May-2017,1,5,stim.wav,1,12,2226,-4.50433128771278,0,2.035969505134078
4,19-May-2017,1,5,stim.wav,1,13,2560,-8.881310402325559,0,2.035969505134078
4,19-May-2017,1,5,stim.wav,1,14,2932,4.729787758220939,0,2.035969505134078
4,19-May-2017,1,5,stim.wav,1,15,3346,10.847274444730841,0,2.035969505134078
4,19-May-2017,1,5,stim.wav,1,16,3808,-4.822949973432497,0,2.035969505134078
4,19-May-2017,1,5,stim.wav,1,17,4322,-0.30118976604866254,0,2.035969505134078
4,19-May-2017,1,5,stim.wav,1,18,4895,4.377750899090697,0,2.035969505134078
4,19-May-2017,1,5,stim.wav,1,19,5534,3.048818191052723,0,2.035969505134078
4,19-May-2017,1,5,stim.wav,1,20,6245,-4.800995003486052,0,2.035969505134078
4,19-May-2017,1,5,stim.wav,1,21,7037,-2.5663493251745946,0,2.035969505134078
4,19-May-2017,1,5,stim.wav,1,22,7920,-3.202059216261825,0,2.035969505134078
4,19-May-2017,1,5,stim.wav,1,23,8904,-2.254241293784513,0,2.035969505134078
4,19-May-2017,1,5,stim.wav,1,24,10000,-0.15459512321689317,0,2.035969505134078
4,19-May-2017,1,6,stim.wav,0,0,100,6.181556540650135,0,0.8668434187502031
4,19-May-2017,1,6,stim.wav,0,1,191,-7.403686718820159,0,0.8668434187502031
4,19-May-2017,1,6,stim.wav,0,2,293,3.4188743023958508,0,0.8668434187502031
4,19-May-2017,1,6,stim.wav,0,3,406,9.37324622367624,0,0.8668434187502031
4,19-May-2017,1,6,stim.wav,0,4,533,-1.1248150835065833,0,0.8668434187502031
4,19-May-2017,1,6,stim.wav,0,5,673,1.1587613063371465,0,0.8668434187502031
4,19-May-2017,1,6,stim.wav,0,6,830,1.5257803498103437,0,0.8668434187502031
4,19-May-2017,1,6,stim.wav,0,7,1004,4.037808768053594,0,0.8668434187502031
4,19-May-2017,1,6,stim.wav,0,8,1199,-3.2010555396446208,0,0.8668434187502031
4,19-May-2017,1,6,stim.wav,0,9,1416,-3.937651100924616,0,0.8668434187502031
4,19-May-2017,1,6,stim.wav,0,10,1657,1.1776822220624243,0,0.8668434187502031
4,19-May-2017,1,6,stim.wav,0,11,1926,-4.565131021588115,0,0.8668434187502031
4,19-May-2017,1,6,stim.wav,0,12,2226,4.081380536451476,0,0.8668434187502031
4,19-May-2017,1,6,stim.wav,0,13,2560,-2.378309958580501,0,0.8668434187502031
4,19-May-2017,1,6,stim.wav,0,14,2932,5.855316963940429,0,0.8668434187502031
4,19-May-2017,1,6,stim.wav,0,15,3346,10.058864264891756,0,0.8668434187502031
4,19-May-2017,1,6,stim.wav,0,16,3808,6.3152472667962165,0,0.8668434187502031
4,19-May-2017,1,6,stim.wav,0,17,4322,-0.8410554401854302,0,0.8668434187502031
4,19-May-2017,1,6,stim.wav,0,18,4895,3.5606393011016344,0,0.8668434187502031
4,19-May-2017,1,6,stim.wav,0,19,5534,10.173155821073598,0,0.8668434187502031
4,19-May-2017,1,6,stim.wav,0,20,6245,2.637088495612085,0,0.8668434187502031
4,19-May-2017,1,6,stim.wav,0,21,7037,-5.125688846055039,0,0.8668434187502031
4,19-May-2017,1,6,stim.wav,0,22,7920,-4.948237693219307,0,0.8668434187502031
4,19-May-2017,1,6,stim.wav,0,23,8904,1.9721899671196597,0,0.8668434187502031
4,19-May-2017,1,6,stim.wav,0,24,10000,4.798432893792447,0,0.8668434187502031
4,19-May-2017,1,6,stim.wav,1,0,100,-5.573669508191616,1,0.8668434187502031
4,19-May-2017,1,6,stim.wav,1,1,191,0.7569576112485052,1,0.8668434187502031
4,19-May-2017,1,6,stim.wav,1,2,293,-5.487409242590977,1,0.8668434187502031
4,19-May-2017,1,6,stim.wav,1,3,406,2.341731574766131,1,0.8668434187502031
4,19-May-2017,1,6,stim.wav,1,4,533,-5.810431312024752,1,0.8668434187502031
4,19-May-2017,1,6,stim.wav,1,5,673,-9.365072477692902,1,0.8668434187502031
4,19-May-2017,1,6,stim.wav,1,6,830,3.9774436906410493,1,0.8668434187502031
4,19-May-2017,1,6,stim.wav,1,7,1004,0.27690153038644905,1,0.8668434187502031
4,19-May-2017,1,6,stim.wav,1,8,1199,0.811010866157218,1,0.8668434187502031
4,19-May-2017,1,6,stim.wav,1,9,1416,-8.422651824945937,1,0.8668434187502031
4,19-May-2017,1,6,stim.wav,1,10,1657,-4.606067133582096,1,0.8668434187502031
4,19-May-2017,1,6,stim.wav,1,11,1926,-0.8804905824957994,1,0.8668434187502031
4,19-May-2017,1,6,stim.wav,1,12,2226,2.3535829244314583,1,0.8668434187502031
4,19-May-2017,1,6,stim.wav,1,13,2560,4.170790440375843,1,0.8668434187502031
4,19-May-2017,1,6,stim.wav,1,14,2932,-5.9713522261045355,1,0.8668434187502031
4,19-May-2017,1,6,stim.wav,1,15,3346,1.911180608127253,1,0.8668434187502031
4,19-May-2017,1,6,stim.wav,1,16,3808,-0.5574093431329339,1,0.8668434187502031
4,19-May-2017,1,6,stim.wav,1,17,4322,2.029872024525152,1,0.8668434187502031
4,19-May-2017,1,6,stim.wav,1,18,4895,7.284362212190455,1,0.8668434187502031
4,19-May-2017,1,6,stim.wav,1,19,5534,-9.785599478726525,1,0.8668434187502031
4,19-May-2017,1,6,stim.wav,1,20,6245,7.523471009914586,1,0.8668434187502031
4,19-May-2017,1,6,stim.wav,1,21,7037,2.5165761959459494,1,0.8668434187502031
4,19-May-2017,1,6,stim.wav,1,22,7920,10.064341645374755,1,0.8668434187502031
4,19-May-2017,1,6,stim.wav,1,23,8904,-3.4925751057211856,1,0.8668434187502031
4,19-May-2017,1,6,stim.wav,1,24,10000,0.2264893020368566,1,0.8668434187502031
4,19-May-2017,1,7,stim.wav,0,0,100,-3.131927649697026,1,0.8227271250019244
4,19-May-2017,1,7,stim.wav,0,1,191,-6.5751281724304755,1,0.8227271250019244
4,19-May-2017,1,7,stim.wav,0,2,293,6.285821502800587,1,0.8227271250019244
4,19-May-2017,1,7,stim.wav,0,3,406,1.5090445563454842,1,0.8227271250019244
4,19-May-2017,1,7,stim.wav,0,4,533,-2.0003297916378453,1,0.8227271250019244
4,19-May-2017,1,7,stim.wav,0,5,673,2.407642400539526,1,0.8227271250019244
4,19-May-2017,1,7,stim.wav,0,6,830,0.7227020471112778,1,0.8227271250019244
4,19-May-2017,1,7,stim.wav,0,7,1004,5.309861078026694,1,0.8227271250019244
4,19-May-2017,1,7,stim.wav,0,8,1199,-2.5272619740841056,1,0.8227271250019244
4,19-May-2017,1,7,stim.wav,0,9,1416,-1.6201833918163444,1,0.8227271250019244
4,19-May-2017,1,7,stim.wav,0,10,1657,0.6084675330174201,1,0.8227271250019244
4,19-May-2017,1,7,stim.wav,0,11,1926,3.5553952469708254,1,0.8227271250019244
4,19-May-2017,1,7,stim.wav,0,12,2226,3.7212250156969944,1,0.8227271250019244
4,19-May-2017,1,7,stim.wav,0,13,2560,5.840602449489633,1,0.8227271250019244
4,19-May-2017,1,7,stim.wav,0,14,2932,2.9503402997468537,1,0.8227271250019244
4,19-May-2017,1,7,stim.wav,0,15,3346,3.294885499861009,1,0.8227271250019244
4,19-May-2017,1,7,stim.wav,0,16,3808,-4.672680839382485,1,0.8227271250019244
4,19-May-2017,1,7,stim.wav,0,17,4322,-1.050113877968538,1,0.8227271250019244
4,19-May-2017,1,7,stim.wav,0,18,4895,-0.3530543808588951,1,0.8227271250019244
4,19-May-2017,1,7,stim.wav,0,19,5534,5.118985698283423,1,0.8227271250019244
4,19-May-2017,1,7,stim.wav,0,20,6245,1.5989438523416797,1,0.8227271250019244
4,19-May-2017,1,7,stim.wav,0,21,7037,-7.039103265154973,1,0.8227271250019244
4,19-May-2017,1,7,stim.wav,0,22,7920,1.8652763591044756,1,0.8227271250019244
4,19-May-2017,1,7,stim.wav,0,23,8904,6.570701825288632,1,0.8227271250019244
4,19-May-2017,1,7,stim.wav,0,24,10000,-9.864972042298664,1,0.8227271250019244
4,19-May-2017,1,7,stim.wav,1,0,100,-3.3872914866669297,0,0.8227271250019244
4,19-May-2017,1,7,stim.wav,1,1,191,-2.648895891637142,0,0.8227271250019244
4,19-May-2017,1,7,stim.wav,1,2,293,0.05194366905521257,0,0.8227271250019244
4,19-May-2017,1,7,stim.wav,1,3,406,2.948154669685738,0,0.8227271250019244
4,19-May-2017,1,7,stim.wav,1,4,533,-2.177516008182177,0,0.8227271250019244
4,19-May-2017,1,7,stim.wav,1,5,673,-3.8033246623460855,0,0.8227271250019244
4,19-May-2017,1,7,stim.wav,1,6,830,2.921006123625266,0,0.8227271250019244
4,19-May-2017,1,7,stim.wav,1,7,1004,6.05815920418189,0,0.8227271250019244
4,19-May-2017,1,7,stim.wav,1,8,1199,-4.934292302164163,0,0.8227271250019244
4,19-May-2017,1,7,stim.wav,1,9,1416,2.138191087113354,0,0.8227271250019244
4,19-May-2017,1,7,stim.wav,1,10,1657,3.212184447439481,0,0.8227271250019244
4,19-May-2017,1,7,stim.wav,1,11,1926,-3.226089941188428,0,0.8227271250019244
4,19-May-2017,1,7,stim.wav,1,12,2226,1.2142774296430028,0,0.8227271250019244
4,19-May-2017,1,7,stim.wav,1,13,2560,7.587075917880378,0,0.8227271250019244
4,19-May-2017,1,7,stim.wav,1,14,2932,0.7373286631678134,0,0.8227271250019244
4,19-May-2017,1,7,stim.wav,1,15,3346,6.950860146123604,0,0.8227271250019244
4,19-May-2017,1,7,stim.wav,1,16,3808,0.3938378674530127,0,0.8227271250019244
4,19-May-2017,1,7,stim.wav,1,17,4322,2.5301901902262913,0,0.8227271250019244
4,19-May-2017,1,7,stim.wav,1,18,4895,-0.9167911567305282,0,0.8227271250019244
4,19-May-2017,1,7,stim.wav,1,19,5534,-10.343106616569555,0,0.8227271250019244
4,19-May-2017,1,7,stim.wav,1,20,6245,-2.180488500849074,0,0.8227271250019244
4,19-May-2017,1,7,stim.wav,1,21,7037,-1.5690530430191594,0,0.8227271250019244
4,19-May-2017,1,7,stim.wav,1,22,7920,-7.109337594692727,0,0.8227271250019244
4,19-May-2017,1,7,stim.wav,1,23,8904,-7.076038020794625,0,0.8227271250019244
4,19-May-2017,1,7,stim.wav,1,24,10000,3.2965655583873965,0,0.8227271250019244
4,19-May-2017,1,8,stim.wav,0,0,100,1.7226527656392798,1,2.5681192837093305
4,19-May-2017,1,8,stim.wav,0,1,191,0.6527576759702414,1,2.5681192837093305
4,19-May-2017,1,8,stim.wav,0,2,293,5.020658744414962,1,2.5681192837093305
4,19-May-2017,1,8,stim.wav,0,3,406,2.5101930373749273,1,2.5681192837093305
4,19-May-2017,1,8,stim.wav,0,4,533,-9.710380976760712,1,2.5681192837093305
4,19-May-2017,1,8,stim.wav,0,5,673,11.1405385849555,1,2.5681192837093305
4,19-May-2017,1,8,stim.wav,0,6,830,1.3039965902128086,1,2.5681192837093305
4,19-May-2017,1,8,stim.wav,0,7,1004,-0.611177117284401,1,2.5681192837093305
4,19-May-2017,1,8,stim.wav,0,8,1199,-5.035123609601344,1,2.5681192837093305
4,19-May-2017,1,8,stim.wav,0,9,1416,6.336751819186591,1,2.5681192837093305
4,19-May-2017,1,8,stim.wav,0,10,1657,-1.7042459167595743,1,2.5681192837093305
4,19-May-2017,1,8,stim.wav,0,11,1926,3.084029031913962,1,2.5681192837093305
4,19-May-2017,1,8,stim.wav,0,12,2226,2.451563242169926,1,2.5681192837093305
4,19-May-2017,1,8,stim.wav,0,13,2560,-0.3299643023502067,1,2.5681192837093305
4,19-May-2017,1,8,stim.wav,0,14,2932,10.220231950148902,1,2.5681192837093305
4,19-May-2017,1,8,stim.wav,0,15,3346,-0.3208595186820875,1,2.5681192837093305
4,19-May-2017,1,8,stim.wav,0,16,3808,-6.125205741739869,1,2.5681192837093305
4,19-May-2017,1,8,stim.wav,0,17,4322,5.0429580415324,1,2.5681192837093305
4,19-May-2017,1,8,stim.wav,0,18,4895,4.861865479212829,1,2.5681192837093305
4,19-May-2017,1,8,stim.wav,0,19,5534,3.5879053288233504,1,2.5681192837093305
4,19-May-2017,1,8,stim.wav,0,20,6245,4.18619329033694,1,2.5681192837093305
4,19-May-2017,1,8,stim.wav,0,21,7037,7.096550429624457,1,2.5681192837093305
4,19-May-2017,1,8,stim.wav,0,22,7920,-7.231136841978413,1,2.5681192837093305
4,19-May-2017,1,8,stim.wav,0,23,8904,-2.0526351166220307,1,2.5681192837093305
4,19-May-2017,1,8,stim.wav,0,24,10000,0.4587443244905531,1,2.5681192837093305
4,19-May-2017,1,8,stim.wav,1,0,100,-3.057850741138244,0,2.5681192837093305
4,19-May-2017,1,8,stim.wav,1,1,191,-0.6814911883263601,0,2.5681192837093305
4,19-May-2017,1,8,stim.wav,1,2,293,3.6740365250780522,0,2.5681192837093305
4,19-May-2017,1,8,stim.wav,1,3,406,3.2503070817465307,0,2.5681192837093305
4,19-May-2017,1,8,stim.wav,1,4,533,6.57109912908496,0,2.5681192837093305
4,19-May-2017,1,8,stim.wav,1,5,673,6.031585249675164,0,2.5681192837093305
4,19-May-2017,1,8,stim.wav,1,6,830,-1.5136973298951277,0,2.5681192837093305
4,19-May-2017,1,8,stim.wav,1,7,1004,2.3054978703414886,0,2.5681192837093305
4,19-May-2017,1,8,stim.wav,1,8,1199,-0.09865516311682307,0,2.5681192837093305
4,19-May-2017,1,8,stim.wav,1,9,1416,2.7222288868340936,0,2.5681192837093305
4,19-May-2017,1,8,stim.wav,1,10,1657,-4.477343794367956,0,2.5681192837093305
4,19-May-2017,1,8,stim.wav,1,11,1926,5.859951806364034,0,2.5681192837093305
4,19-May-2017,1,8,stim.wav,1,12,2226,-2.3799382226909795,0,2.5681192837093305
4,19-May-2017,1,8,stim.wav,1,13,2560,-5.3543420413199785,0,2.5681192837093305
4,19-May-2017,1,8,stim.wav,1,14,2932,-12.021271832508608,0,2.5681192837093305
4,19-May-2017,1,8,stim.wav,1,15,3346,-1.0892716600130903,0,2.5681192837093305
4,19-May-2017,1,8,stim.wav,1,16,3808,0.5392347228205991,0,2.5681192837093305
4,19-May-2017,1,8,stim.wav,1,17,4322,-2.2528577837637713,0,2.5681192837093305
4,19-May-2017,1,8,stim.wav,1,18,4895,-1.1649516710509584,0,2.5681192837093305
4,19-May-2017,1,8,stim.wav,1,19,5534,-3.5462915136723656,0,2.5681192837093305
4,19-May-2017,1,8,stim.wav,1,20,6245,-2.469144721237611,0,2.5681192837093305
4,19-May-2017,1,8,stim.wav,1,21,7037,-0.785379375716911,0,2.5681192837093305
4,19-May-2017,1,8,stim.wav,1,22,7920,0.29784508622118505,0,2.5681192837093305
4,19-May-2017,1,8,stim.wav,1,23,8904,-4.568130248149834,0,2.5681192837093305
4,19-May-2017,1,8,stim.wav,1,24,10000,-7.147254539125502,0,2.5681192837093305
4,19-May-2017,1,9,stim.wav,0,0,100,-1.7186260733159708,0,0.9410378996378863
4,19-May-2017,1,9,stim.wav,0,1,191,-2.3794749410764453,0,0.9410378996378863
4,19-May-2017,1,9,stim.wav,0,2,293,-7.892302327641463,0,0.9410378996378863
4,19-May-2017,1,9,stim.wav,0,3,406,3.7729822892449265,0,0.9410378996378863
4,19-May-2017,1,9,stim.wav,0,4,533,7.100381178012073,0,0.9410378996378863
4,19-May-2017,1,9,stim.wav,0,5,673,2.134423022393414,0,0.9410378996378863
4,19-May-2017,1,9,stim.wav,0,6,830,1.7438866341321069,0,0.9410378996378863
4,19-May-2017,1,9,stim.wav,0,7,1004,11.567962895251934,0,0.9410378996378863
4,19-May-2017,1,9,stim.wav,0,8,1199,-1.9287197020271207,0,0.9410378996378863
4,19-May-2017,1,9,stim.wav,0,9,1416,4.57168105591076,0,0.9410378996378863
4,19-May-2017,1,9,stim.wav,0,10,1657,4.2416346001668535,0,0.9410378996378863
4,19-May-2017,1,9,stim.wav,0,11,1926,2.7490728532056323,0,0.9410378996378863
4,19-May-2017,1,9,stim.wav,0,12,2226,3.173368159954655,0,0.9410378996378863
4,19-May-2017,1,9,stim.wav,0,13,2560,1.4002793170096215,0,0.9410378996378863
4,19-May-2017,1,9,stim.wav,0,14,2932,3.5477914838036595,0,0.9410378996378863
4,19-May-2017,1,9,stim.wav,0,15,3346,1.8485226321612376,0,0.9410378996378863
4,19-May-2017,1,9,stim.wav,0,16,3808,-3.491138776536942,0,0.9410378996378863
4,19-May-2017,1,9,stim.wav,0,17,4322,3.98829087154346,0,0.9410378996378863
4,19-May-2017,1,9,stim.wav,0,18,4895,2.5578998546373386,0,0.9410378996378863
4,19-May-2017,1,9,stim.wav,0,19,5534,0.9719802537232884,0,0.9410378996378863
4,19-May-2017,1,9,stim.wav,0,20,6245,7.588366915549663,0,0.9410378996378863
4,19-May-2017,1,9,stim.wav,0,21,7037,4.1339014050596425,0,0.9410378996378863
4,19-May-2017,1,9,stim.wav,0,22,7920,9.010201394859617,0,0.9410378996378863
4,19-May-2017,1,9,stim.wav,0,23,8904,6.179565549386879,0,0.9410378996378863
4,19-May-2017,1,9,stim.wav,0,24,10000,1.5117280373979334,0,0.9410378996378863
4,19-May-2017,1,9,stim.wav,1,0,100,-0.5200822693693024,1,0.9410378996378863
4,19-May-2017,1,9,stim.wav,1,1,191,2.394640436437934,1,0.9410378996378863
4,19-May-2017,1,9,stim.wav,1,2,293,-0.1884635570934186,1,0.9410378996378863
4,19-May-2017,1,9,stim.wav,1,3,406,3.27150492321894,1,0.9410378996378863
4,19-May-2017,1,9,stim.wav,1,4,533,8.211670674081464,1,0.9410378996378863
4,19-May-2017,1,9,stim.wav,1,5,673,9.673148770847057,1,0.9410378996378863
4,19-May-2017,1,9,stim.wav,1,6,830,2.1416773471477617,1,0.9410378996378863
4,19-May-2017,1,9,stim.wav,1,7,1004,3.1356830052650353,1,0.9410378996378863
4,19-May-2017,1,9,stim.wav,1,8,1199,-1.6326414645822809,1,0.9410378996378863
4,19-May-2017,1,9,stim.wav,1,9,1416,0.8482295417477448,1,0.9410378996378863
4,19-May-2017,1,9,stim.wav,1,10,1657,4.294700052767273,1,0.9410378996378863
4,19-May-2017,1,9,stim.wav,1,11,1926,-1.8626964875533136,1,0.9410378996378863
4,19-May-2017,1,9,stim.wav,1,12,2226,-4.325674379159228,1,0.9410378996378863
4,19-May-2017,1,9,stim.wav,1,13,2560,-5.196052760077244,1,0.9410378996378863
4,19-May-2017,1,9,stim.wav,1,14,2932,4.512295757390529,1,0.9410378996378863
4,19-May-2017,1,9,stim.wav,1,15,3346,-2.4130361292647433,1,0.9410378996378863
4,19-May-2017,1,9,stim.wav,1,16,3808,1.5780821254530006,1,0.9410378996378863
4,19-May-2017,1,9,stim.wav,1,17,4322,4.184876036645787,1,0.9410378996378863
4,19-May-2017,1,9,stim.wav,1,18,4895,-10.048117432904768,1,0.9410378996378863
4,19-May-2017,1,9,stim.wav,1,19,5534,1.5868210653739687,1,0.9410378996378863
4,19-May-2017,1,9,stim.wav,1,20,6245,-0.8834627236591951,1,0.9410378996378863
4,19-May-2017,1,9,stim.wav,1,21,7037,5.713600632982608,1,0.9410378996378863
4,19-May-2017,1,9,stim.wav,1,22,7920,7.051383712288438,1,0.9410378996378863
4,19-May-2017,1,9,stim.wav,1,23,8904,-0.5156577852523027,1,0.9410378996378863
4,19-May-2017,1,9,stim.wav,1,24,10000,10.532823827204352,1,0.9410378996378863
4,19-May-2017,1,10,stim.wav,0,0,100,-2.253518637738655,0,1.1172430780177995
4,19-May-2017,1,10,stim.wav,0,1,191,-0.24884392677919165,0,1.1172430780177995
4,19-May-2017,1,10,stim.wav,0,2,293,3.8407556909251834,0,1.1172430780177995
4,19-May-2017,1,10,stim.wav,0,3,406,-0.002442282678637369,0,1.1172430780177995
4,19-May-2017,1,10,stim.wav,0,4,533,4.014774881620819,0,1.1172430780177995
4,19-May-2017,1,10,stim.wav,0,5,673,-4.036362997489289,0,1.1172430780177995
4,19-May-2017,1,10,stim.wav,0,6,830,-4.201631453049074,0,1.1172430780177995
4,19-May-2017,1,10,stim.wav,0,7,1004,-7.974654757725025,0,1.1172430780177995
4,19-May-2017,1,10,stim.wav,0,8,1199,6.22292971564383,0,1.1172430780177995
4,19-May-2017,1,10,stim.wav,0,9,1416,-5.53832357689084,0,1.1172430780177995
4,19-May-2017,1,10,stim.wav,0,10,1657,5.000595258872137,0,1.1172430780177995
4,19-May-2017,1,10,stim.wav,0,11,1926,-1.8937513947821198,0,1.1172430780177995
4,19-May-2017,1,10,stim.wav,0,12,2226,2.3985479493800472,0,1.1172430780177995
4,19-May-2017,1,10,stim.wav,0,13,2560,0.9535905634581914,0,1.1172430780177995
4,19-May-2017,1,10,stim.wav,0,14,2932,1.6060563397809555,0,1.1172430780177995
4,19-May-2017,1,10,stim.wav,0,15,3346,2.018799147075605,0,1.1172430780177995
4,19-May-2017,1,10,stim.wav,0,16,3808,2.052530437376342,0,1.1172430780177995
4,19-May-2017,1,10,stim.wav,0,17,4322,4.440269912274168,0,1.1172430780177995
4,19-May-2017,1,10,stim.wav,0,18,4895,-7.276024675911455,0,1.1172430780177995
4,19-May-2017,1,10,stim.wav,0,19,5534,4.650533284169948,0,1.1172430780177995
4,19-May-2017,1,10,stim.wav,0,20,6245,1.0640938102234978,0,1.1172430780177995
4,19-May-2017,1,10,stim.wav,0,21,7037,-3.583075594675421,0,1.1172430780177995
4,19-May-2017,1,10,stim.wav,0,22,7920,2.8242707182378215,0,1.1172430780177995
4,19-May-2017,1,10,stim.wav,0,23,8904,-1.004228178418414,0,1.1172430780177995
4,19-May-2017,1,10,stim.wav,0,24,10000,-11.265492565462896,0,1.1172430780177995
4,19-May-2017,1,10,stim.wav,1,0,100,1.968586004827026,1,1.1172430780177995
4,19-May-2017,1,10,stim.wav,1,1,191,-3.022705620083469,1,1.1172430780177995
4,19-May-2017,1,10,stim.wav,1,2,293,3.1572864909374223,1,1.1172430780177995
4,19-May-2017,1,10,stim.wav,1,3,406,6.609132370166142,1,1.1172430780177995
4,19-May-2017,1,10,stim.wav,1,4,533,5.850830512071675,1,1.1172430780177995
4,19-May-2017,1,10,stim.wav,1,5,673,0.572376881388788,1,1.1172430780177995
4,19-May-2017,1,10,stim.wav,1,6,830,-5.574337446651253,1,1.1172430780177995
4,19-May-2017,1,10,stim.wav,1,7,1004,0.8900804804493817,1,1.1172430780177995
4,19-May-2017,1,10,stim.wav,1,8,1199,-4.04701278595902,1,1.1172430780177995
4,19-May-2017,1,10,stim.wav,1,9,1416,-5.7604762878759574,1,1.1172430780177995
4,19-May-2017,1,10,stim.wav,1,10,1657,7.720050897267667,1,1.1172430780177995
4,19-May-2017,1,10,stim.wav,1,11,1926,-1.2470532700146977,1,1.1172430780177995
4,19-May-2017,1,10,stim.wav,1,12,2226,-3.832754918064448,1,1.1172430780177995
4,19-May-2017,1,10,stim.wav,1,13,2560,6.430572793827228,1,1.1172430780177995
4,19-May-2017,1,10,stim.wav,1,14,2932,2.2567090490778847,1,1.1172430780177995
4,19-May-2017,1,10,stim.wav,1,15,3346,2.2938668929524404,1,1.1172430780177995
4,19-May-2017,1,10,stim.wav,1,16,3808,0.906082752820869,1,1.1172430780177995
4,19-May-2017,1,10,stim.wav,1,17,4322,-2.433736269374846,1,1.1172430780177995
4,19-May-2017,1,10,stim.wav,1,18,4895,-0.02393097077094036,1,1.1172430780177995
4,19-May-2017,1,10,stim.wav,1,19,5534,-0.20737733363613292,1,1.1172430780177995
4,19-May-2017,1,10,stim.wav,1,20,6245,3.018342282630363,1,1.1172430780177995
4,19-May-2017,1,10,stim.wav,1,21,7037,-4.591818717767423,1,1.1172430780177995
4,19-May-2017,1,10,stim.wav,1,22,7920,-2.4567804892744824,1,1.1172430780177995
4,19-May-2017,1,10,stim.wav,1,23,8904,-0.39500132022099566,1,1.1172430780177995
4,19-May-2017,1,10,stim.wav,1,24,10000,5.090783305419172,1,1.1172430780177995
4,19-May-2017,1,11,stim.wav,0,0,100,1.462731916573496,1,0.9322736190673305
4,19-May-2017,1,11,stim.wav,0,1,191,-3.174099342002524,1,0.9322736190673305
4,19-May-2017,1,11,stim.wav,0,2,293,5.59903887094766,1,0.9322736190673305
4,19-May-2017,1,11,stim.wav,0,3,406,-1.7133702214194777,1,0.9322736190673305
4,19-May-2017,1,11,stim.wav,0,4,533,0.5968693188272136,1,0.9322736190673305
4,19-May-2017,1,11,stim.wav,0,5,673,-4.24888636705223,1,0.9322736190673305
4,19-May-2017,1,11,stim.wav,0,6,830,7.524662212316834,1,0.9322736190673305
4,19-May-2017,1,11,stim.wav,0,7,1004,3.6448805790436927,1,0.9322736190673305
4,19-May-2017,1,11,stim.wav,0,8,1199,1.0139801506757675,1,0.9322736190673305
4,19-May-2017,1,11,stim.wav,0,9,1416,-0.19054825828807886,1,0.9322736190673305
4,19-May-2017,1,11,stim.wav,0,10,1657,-1.029016513648484,1,0.9322736190673305
4,19-May-2017,1,11,stim.wav,0,11,1926,0.8034318822027777,1,0.9322736190673305
4,19-May-2017,1,11,stim.wav,0,12,2226,0.9585895565140767,1,0.9322736190673305
4,19-May-2017,1,11,stim.wav,0,13,2560,3.869707414172451,1,0.9322736190673305
4,19-May-2017,1,11,stim.wav,0,14,2932,1.7642934211094372,1,0.9322736190673305
4,19-May-2017,1,11,stim.wav,0,15,3346,-1.8880194369313603,1,0.9322736190673305
4,19-May-2017,1,11,stim.wav,0,16,3808,1.3669944958452205,1,0.9322736190673305
4,19-May-2017,1,11,stim.wav,0,17,4322,-9.5943144013806,1,0.9322736190673305
4,19-May-2017,1,11,stim.wav,0,18,4895,-3.111711522981965,1,0.9322736190673305
4,19-May-2017,1,11,stim.wav,0,19,5534,3.0155540003608223,1,0.9322736190673305
4,19-May-2017,1,11,stim.wav,0,20,6245,11.696670930169198,1,0.9322736190673305
4,19-May-2017,1,11,stim.wav,0,21,7037,-5.108415056209949,1,0.9322736190673305
4,19-May-2017,1,11,stim.wav,0,22,7920,4.75019726545923,1,0.9322736190673305
4,19-May-2017,1,11,stim.wav,0,23,8904,2.198606156765247,1,0.9322736190673305
4,19-May-2017,1,11,stim.wav,0,24,10000,5.550487423894212,1,0.9322736190673305
4,19-May-2017,1,11,stim.wav,1,0,100,-1.1411781230642866,0,0.9322736190673305
4,19-May-2017,1,11,stim.wav,1,1,191,-1.6988841161267088,0,0.9322736190673305
4,19-May-2017,1,11,stim.wav,1,2,293,-10.625170216897127,0,0.9322736190673305
4,19-May-2017,1,11,stim.wav,1,3,406,-0.815321628515472,0,0.9322736190673305
4,19-May-2017,1,11,stim.wav,1,4,533,4.532549299327607,0,0.9322736190673305
4,19-May-2017,1,11,stim.wav,1,5,673,4.05672843803935,0,0.9322736190673305
4,19-May-2017,1,11,stim.wav,1,6,830,9.544609581106348,0,0.9322736190673305
4,19-May-2017,1,11,stim.wav,1,7,1004,-0.6267772315839065,0,0.9322736190673305
4,19-May-2017,1,11,stim.wav,1,8,1199,0.6207917559310473,0,0.9322736190673305
4,19-May-2017,1,11,stim.wav,1,9,1416,-2.265643131320087,0,0.9322736190673305
4,19-May-2017,1,11,stim.wav,1,10,1657,-5.601873975372143,0,0.9322736190673305
4,19-May-2017,1,11,stim.wav,1,11,1926,6.935849975780457,0,0.9322736190673305
4,19-May-2017,1,11,stim.wav,1,12,2226,-1.585475975374699,0,0.9322736190673305
4,19-May-2017,1,11,stim.wav,1,13,2560,7.752089897309147,0,0.9322736190673305
4,19-May-2017,1,11,stim.wav,1,14,2932,4.629342711022289,0,0.9322736190673305
4,19-May-2017,1,11,stim.wav,1,15,3346,3.864570380231967,0,0.9322736190673305
4,19-May-2017,1,11,stim.wav,1,16,3808,5.6021802277722355,0,0.9322736190673305
4,19-May-2017,1,11,stim.wav,1,17,4322,0.20728545368480203,0,0.9322736190673305
4,19-May-2017,1,11,stim.wav,1,18,4895,-2.163331777369661,0,0.9322736190673305
4,19-May-2017,1,11,stim.wav,1,19,5534,-3.648922302853443,0,0.9322736190673305
4,19-May-2017,1,11,stim.wav,1,20,6245,-9.774592077700824,0,0.9322736190673305
4,19-May-2017,1,11,stim.wav,1,21,7037,-4.731242085188919,0,0.9322736190673305
4,19-May-2017,1,11,stim.wav,1,22,7920,-5.442475223738134,0,0.9322736190673305
4,19-May-2017,1,11,stim.wav,1,23,8904,4.7498176880923975,0,0.9322736190673305
4,19-May-2017,1,11,stim.wav,1,24,10000,2.65945847224243,0,0.9322736190673305
4,19-May-2017,1,12,stim.wav,0,0,100,4.673032975315513,0,0.9131170001864449
4,19-May-2017,1,12,stim.wav,0,1,191,3.9649422176902833,0,0.9131170001864449
4,19-May-2017,1,12,stim.wav,0,2,293,-8.517871520970576,0,0.9131170001864449
4,19-May-2017,1,12,stim.wav,0,3,406,-0.6562494504300458,0,0.9131170001864449
4,19-May-2017,1,12,stim.wav,0,4,533,2.5249317026942633,0,0.9131170001864449
4,19-May-2017,1,12,stim.wav,0,5,673,1.0993077387502106,0,0.9131170001864449
4,19-May-2017,1,12,stim.wav,0,6,830,-4.159484503307563,0,0.9131170001864449
4,19-May-2017,1,12,stim.wav,0,7,1004,4.495039091149315,0,0.9131170001864449
4,19-May-2017,1,12,stim.wav,0,8,1199,2.3225760564867977,0,0.9131170001864449
4,19-May-2017,1,12,stim.wav,0,9,1416,-3.8211523444858035,0,0.9131170001864449
4,19-May-2017,1,12,stim.wav,0,10,1657,-1.7076275225619917,0,0.9131170001864449
4,19-May-2017,1,12,stim.wav,0,11,1926,5.676516389119785,0,0.9131170001864449
4,19-May-2017,1,12,stim.wav,0,12,2226,-0.9826409225348859,0,0.9131170001864449
4,19-May-2017,1,12,stim.wav,0,13,2560,-7.726044479187612,0,0.9131170001864449
4,19-May-2017,1,12,stim.wav,0,14,2932,1.048644623184525,0,0.9131170001864449
4,19-May-2017,1,12,stim.wav,0,15,3346,1.5086776060749576,0,0.9131170001864449
4,19-May-2017,1,12,stim.wav,0,16,3808,-0.579468170678902,0,0.9131170001864449
4,19-May-2017,1,12,stim.wav,0,17,4322,3.046729245662277,0,0.9131170001864449
4,19-May-2017,1,12,stim.wav,0,18,4895,-4.794880178761227,0,0.9131170001864449
4,19-May-2017,1,12,stim.wav,0,19,5534,0.839632717568767,0,0.9131170001864449
4,19-May-2017,1,12,stim.wav,0,20,6245,1.819938598666063,0,0.9131170001864449
4,19-May-2017,1,12,stim.wav,0,21,7037,2.2010151268229343,0,0.9131170001864449
4,19-May-2017,1,12,stim.wav,0,22,7920,-2.7998640487129824,0,0.9131170001864449
4,19-May-2017,1,12,stim.wav,0,23,8904,1.365360902512767,0,0.9131170001864449
4,19-May-2017,1,12,stim.wav,0,24,10000,1.9299950187118848,0,0.9131170001864449
4,19-May-2017,1,12,stim.wav,1,0,100,5.455432366206567,1,0.9131170001864449
4,19-May-2017,1,12,stim.wav,1,1,191,-2.817293599572181,1,0.9131170001864449
4,19-May-2017,1,12,stim.wav,1,2,293,5.523735367824914,1,0.9131170001864449
4,19-May-2017,1,12,stim.wav,1,3,406,3.3707738237811857,1,0.9131170001864449
4,19-May-2017,1,12,stim.wav,1,4,533,-8.573616639225923,1,0.9131170001864449
4,19-May-2017,1,12,stim.wav,1,5,673,-0.9500005588121728,1,0.9131170001864449
4,19-May-2017,1,12,stim.wav,1,6,830,-0.39736593410217946,1,0.9131170001864449
4,19-May-2017,1,12,stim.wav,1,7,1004,0.5212232690023065,1,0.9131170001864449
4,19-May-2017,1,12,stim.wav,1,8,1199,-1.42568172126872,1,0.9131170001864449
4,19-May-2017,1,12,stim.wav,1,9,1416,-1.0774660848202036,1,0.9131170001864449
4,19-May-2017,1,12,stim.wav,1,10,1657,-4.657856484709662,1,0.9131170001864449
4,19-May-2017,1,12,stim.wav,1,11,1926,0.5131667108581749,1,0.9131170001864449
4,19-May-2017,1,12,stim.wav,1,12,2226,2.283448524309744,1,0.9131170001864449
4,19-May-2017,1,12,stim.wav,1,13,2560,-5.053206411609912,1,0.9131170001864449
4,19-May-2017,1,12,stim.wav,1,14,2932,7.75911642390014,1,0.9131170001864449
4,19-May-2017,1,12,stim.wav,1,15,3346,0.7565317039915121,1,0.9131170001864449
4,19-May-2017,1,12,stim.wav,1,16,3808,2.8595067184828333,1,0.9131170001864449
4,19-May-2017,1,12,stim.wav,1,17,4322,-1.6193066772684548,1,0.9131170001864449
4,19-May-2017,1,12,stim.wav,1,18,4895,-0.6122966089298516,1,0.9131170001864449
4,19-May-2017,1,12,stim.wav,1,19,5534,7.315157131188719,1,0.9131170001864449
4,19-May-2017,1,12,stim.wav,1,20,6245,8.275974996171007,1,0.9131170001864449
4,19-May-2017,1,12,stim.wav,1,21,7037,-1.2966824229522382,1,0.9131170001864449
4,19-May-2017,1,12,stim.wav,1,22,7920,-3.6962440992949186,1,0.9131170001864449
4,19-May-2017,1,12,stim.wav,1,23,8904,6.06454738747325,1,0.9131170001864449
4,19-May-2017,1,12,stim.wav,1,24,10000,1.2841708009321107,1,0.9131170001864449
4,19-May-2017,1,13,stim.wav,0,0,100,1.2559053108783242,1,0.9433166331122792
4,19-May-2017,1,13,stim.wav,0,1,191,-9.65876342338857,1,0.9433166331122792
4,19-May-2017,1,13,stim.wav,0,2,293,5.879543389335056,1,0.9433166331122792
4,19-May-2017,1,13,stim.wav,0,3,406,-4.770064246723892,1,0.9433166331122792
4,19-May-2017,1,13,stim.wav,0,4,533,-1.9775343973738735,1,0.9433166331122792
4,19-May-2017,1,13,stim.wav,0,5,673,-0.3866642261380914,1,0.9433166331122792
4,19-May-2017,1,13,stim.wav,0,6,830,5.172621927408922,1,0.9433166331122792
4,19-May-2017,1,13,stim.wav,0,7,1004,-3.431789540866509,1,0.9433166331122792
4,19-May-2017,1,13,stim.wav,0,8,1199,-1.7876782038830261,1,0.9433166331122792
4,19-May-2017,1,13,stim.wav,0,9,1416,0.47267719212464193,1,0.9433166331122792
4,19-May-2017,1,13,stim.wav,0,10,1657,7.633309776544978,1,0.9433166331122792
4,19-May-2017,1,13,stim.wav,0,11,1926,-6.5929088599675625,1,0.9433166331122792
4,19-May-2017,1,13,stim.wav,0,12,2226,-1.1047858025693038,1,0.9433166331122792
4,19-May-2017,1,13,stim.wav,0,13,2560,-2.6503723030399593,1,0.9433166331122792
4,19-May-2017,1,13,stim.wav,0,14,2932,-3.8659506182903987,1,0.9433166331122792
4,19-May-2017,1,13,stim.wav,0,15,3346,-4.889525531771025,1,0.9433166331122792
4,19-May-2017,1,13,stim.wav,0,16,3808,-6.21377575373446,1,0.9433166331122792
4,19-May-2017,1,13,stim.wav,0,17,4322,1.5954740419904865,1,0.9433166331122792
4,19-May-2017,1,13,stim.wav,0,18,4895,0.7362566036962636,1,0.9433166331122792
4,19-May-2017,1,13,stim.wav,0,19,5534,0.40127289413441725,1,0.9433166331122792
4,19-May-2017,1,13,stim.wav,0,20,6245,6.614844949121633,1,0.9433166331122792
4,19-May-2017,1,13,stim.wav,0,21,7037,-5.434519409850218,1,0.9433166331122792
4,19-May-2017,1,13,stim.wav,0,22,7920,-4.495277406176265,1,0.9433166331122792
4,19-May-2017,1,13,stim.wav,0,23,8904,-7.796071279121149,1,0.9433166331122792
4,19-May-2017,1,13,stim.wav,0,24,10000,11.585316195191533,1,0.9433166331122792
4,19-May-2017,1,13,stim.wav,1,0,100,-4.725623458060922,0,0.9433166331122792
4,19-May-2017,1,13,stim.wav,1,1,191,4.771334978353728,0,0.9433166331122792
4,19-May-2017,1,13,stim.wav,1,2,293,-6.479711091934279,0,0.9433166331122792
4,19-May-2017,1,13,stim.wav,1,3,406,4.542831945811126,0,0.9433166331122792
4,19-May-2017,1,13,stim.wav,1,4,533,6.027382558585157,0,0.9433166331122792
4,19-May-2017,1,13,stim.wav,1,5,673,-4.306658444035484,0,0.9433166331122792
4,19-May-2017,1,13,stim.wav,1,6,830,1.926780624551857,0,0.9433166331122792
4,19-May-2017,1,13,stim.wav,1,7,1004,-0.07392885595909801,0,0.9433166331122792
4,19-May-2017,1,13,stim.wav,1,8,1199,-2.9227378792162453,0,0.9433166331122792
4,19-May-2017,1,13,stim.wav,1,9,1416,-2.5880898310612093,0,0.9433166331122792
4,19-May-2017,1,13,stim.wav,1,10,1657,-2.7084418589281745,0,0.9433166331122792
4,19-May-2017,1,13,stim.wav,1,11,1926,-5.738391249088869,0,0.9433166331122792
4,19-May-2017,1,13,stim.wav,1,12,2226,-7.3378630124171185,0,0.9433166331122792
4,19-May-2017,1,13,stim.wav,1,13,2560,3.3166322699454813,0,0.9433166331122792
4,19-May-2017,1,13,stim.wav,1,14,2932,2.845791692753253,0,0.9433166331122792
4,19-May-2017,1,13,stim.wav,1,15,3346,-9.64259767959701,0,0.9433166331122792
4,19-May-2017,1,13,stim.wav,1,16,3808,-1.9177066424656377,0,0.9433166331122792
4,19-May-2017,1,13,stim.wav,1,17,4322,-0.050667674000532625,0,0.9433166331122792
4,19-May-2017,1,13,stim.wav,1,18,4895,11.874416485067536,0,0.9433166331122792
4,19-May-2017,1,13,stim.wav,1,19,5534,1.2716507349318782,0,0.9433166331122792
4,19-May-2017,1,13,stim.wav,1,20,6245,-0.7295442261848784,0,0.9433166331122792
4,19-May-2017,1,13,stim.wav,1,21,7037,12.403757688843077,0,0.9433166331122792
4,19-May-2017,1,13,stim.wav,1,22,7920,-5.65890634643341,0,0.9433166331122792
4,19-May-2017,1,13,stim.wav,1,23,8904,-1.587568012218594,0,0.9433166331122792
4,19-May-2017,1,13,stim.wav,1,24,10000,-4.5071399288637,0,0.9433166331122792
4,19-May-2017,1,14,stim.wav,0,0,100,1.4171726636159119,0,1.0602497677990774
4,19-May-2017,1,14,stim.wav,0,1,191,4.088069998364193,0,1.0602497677990774
4,19-May-2017,1,14,stim.wav,0,2,293,-4.316597136784352,0,1.0602497677990774
4,19-May-2017,1,14,stim.wav,0,3,406,10.909081198102905,0,1.0602497677990774
4,19-May-2017,1,14,stim.wav,0,4,533,1.4046960383788885,0,1.0602497677990774
4,19-May-2017,1,14,stim.wav,0,5,673,0.1514605354075289,0,1.0602497677990774
4,19-May-2017,1,14,stim.wav,0,6,830,9.04871415402401,0,1.0602497677990774
4,19-May-2017,1,14,stim.wav,0,7,1004,-1.1123369901517033,0,1.0602497677990774
4,19-May-2017,1,14,stim.wav,0,8,1199,1.0534713246497454,0,1.0602497677990774
4,19-May-2017,1,14,stim.wav,0,9,1416,6.025023156863735,0,1.0602497677990774
4,19-May-2017,1,14,stim.wav,0,10,1657,-2.2327951445006065,0,1.0602497677990774
4,19-May-2017,1,14,stim.wav,0,11,1926,1.94460703700922,0,1.0602497677990774
4,19-May-2017,1,14,stim.wav,0,12,2226,-3.849972302052995,0,1.0602497677990774
4,19-May-2017,1,14,stim.wav,0,13,2560,3.2293058106500823,0,1.0602497677990774
4,19-May-2017,1,14,stim.wav,0,14,2932,4.297820597247314,0,1.0602497677990774
4,19-May-2017,1,14,stim.wav,0,15,3346,4.3879825330111,0,1.0602497677990774
4,19-May-2017,1,14,stim.wav,0,16,3808,3.748163956094617,0,1.0602497677990774
4,19-May-2017,1,14,stim.wav,0,17,4322,2.2479376769280255,0,1.0602497677990774
4,19-May-2017,1,14,stim.wav,0,18,4895,4.018608977570192,0,1.0602497677990774
4,19-May-2017,1,14,stim.wav,0,19,5534,-2.1565396442758837,0,1.0602497677990774
4,19-May-2017,1,14,stim.wav,0,20,6245,-5.600663809844448,0,1.0602497677990774
4,19-May-2017,1,14,stim.wav,0,21,7037,1.4586943828201402,0,1.0602497677990774
4,19-May-2017,1,14,stim.wav,0,22,7920,0.8915547620276005,0,1.0602497677990774
4,19-May-2017,1,14,stim.wav,0,23,8904,2.5120511183974736,0,1.0602497677990774
4,19-May-2017,1,14,stim.wav,0,24,10000,0.5416422764081361,0,1.0602497677990774
4,19-May-2017,1,14,stim.wav,1,0,100,-4.7837527744650945,1,1.0602497677990774
4,19-May-2017,1,14,stim.wav,1,1,191,-1.4041509739561306,1,1.0602497677990774
4,19-May-2017,1,14,stim.wav,1,2,293,3.250399146797243,1,1.0602497677990774
4,19-May-2017,1,14,stim.wav,1,3,406,10.73850278084299,1,1.0602497677990774
4,19-May-2017,1,14,stim.wav,1,4,533,-5.42323578225076,1,1.0602497677990774
4,19-May-2017,1,14,stim.wav,1,5,673,-0.4142904074912332,1,1.0602497677990774
4,19-May-2017,1,14,stim.wav,1,6,830,4.6898131002170835,1,1.0602497677990774
4,19-May-2017,1,14,stim.wav,1,7,1004,5.542267801311908,1,1.0602497677990774
4,19-May-2017,1,14,stim.wav,1,8,1199,-0.552311339423693,1,1.0602497677990774
4,19-May-2017,1,14,stim.wav,1,9,1416,2.685017673628952,1,1.0602497677990774
4,19-May-2017,1,14,stim.wav,1,10,1657,-10.36191455216952,1,1.0602497677990774
4,19-May-2017,1,14,stim.wav,1,11,1926,-8.494994539381642,1,1.0602497677990774
4,19-May-2017,1,14,stim.wav,1,12,2226,2.684603371738266,1,1.0602497677990774
4,19-May-2017,1,14,stim.wav,1,13,2560,5.096071479847858,1,1.0602497677990774
4,19-May-2017,1,14,stim.wav,1,14,2932,-3.2741297409447947,1,1.0602497677990774
4,19-May-2017,1,14,stim.wav,1,15,3346,-2.2610525854616905,1,1.0602497677990774
4,19-May-2017,1,14,stim.wav,1,16,3808,-2.227054703150189,1,1.0602497677990774
4,19-May-2017,1,14,stim.wav,1,17,4322,3.58775259118717,1,1.0602497677990774
4,19-May-2017,1,14,stim.wav,1,18,4895,2.7808384249032447,1,1.0602497677990774
4,19-May-2017,1,14,stim.wav,1,19,5534,8.538359579879277,1,1.0602497677990774
4,19-May-2017,1,14,stim.wav,1,20,6245,0.6438259847885343,1,1.0602497677990774
4,19-May-2017,1,14,stim.wav,1,21,7037,3.9414742065768262,1,1.0602497677990774
4,19-May-2017,1,14,stim.wav,1,22,7920,2.7707245245085073,1,1.0602497677990774
4,19-May-2017,1,14,stim.wav,1,23,8904,2.1701881679255,1,1.0602497677990774
4,19-May-2017,1,14,stim.wav,1,24,10000,10.439694622644817,1,1.0602497677990774
4,19-May-2017,1,15,stim.wav,0,0,100,1.9102880080672437,0,1.329366104309957
4,19-May-2017,1,15,stim.wav,0,1,191,3.0736163634672735,0,1.329366104309957
4,19-May-2017,1,15,stim.wav,0,2,293,5.373643033386384,0,1.329366104309957
4,19-May-2017,1,15,stim.wav,0,3,406,-1.2463480137414993,0,1.329366104309957
4,19-May-2017,1,15,stim.wav,0,4,533,3.159571071554392,0,1.329366104309957
4,19-May-2017,1,15,stim.wav,0,5,673,1.3800429871551532,0,1.329366104309957
4,19-May-2017,1,15,stim.wav,0,6,830,1.43571394271405,0,1.329366104309957
4,19-May-2017,1,15,stim.wav,0,7,1004,-9.027583798502382,0,1.329366104309957
4,19-May-2017,1,15,stim.wav,0,8,1199,9.28067297796624,0,1.329366104309957
4,19-May-2017,1,15,stim.wav,0,9,1416,1.9196512349551336,0,1.329366104309957
4,19-May-2017,1,15,stim.wav,0,10,1657,0.056554675876435846,0,1.329366104309957
4,19-May-2017,1,15,stim.wav,0,11,1926,3.017615768007906,0,1.329366104309957
4,19-May-2017,1,15,stim.wav,0,12,2226,-4.471269850161279,0,1.329366104309957
4,19-May-2017,1,15,stim.wav,0,13,2560,2.151063106346806,0,1.329366104309957
4,19-May-2017,1,15,stim.wav,0,14,2932,0.2662664160621746,0,1.329366104309957
4,19-May-2017,1,15,stim.wav,0,15,3346,-4.869452588580716,0,1.329366104309957
4,19-May-2017,1,15,stim.wav,0,16,3808,-9.06503435410647,0,1.329366104309957
4,19-May-2017,1,15,stim.wav,0,17,4322,4.045483738206088,0,1.329366104309957
4,19-May-2017,1,15,stim.wav,0,18,4895,6.671772453582862,0,1.329366104309957
4,19-May-2017,1,15,stim.wav,0,19,5534,-6.104245920704639,0,1.329366104309957
4,19-May-2017,1,15,stim.wav,0,20,6245,0.4674308542496313,0,1.329366104309957
4,19-May-2017,1,15,stim.wav,0,21,7037,-5.127100415285905,0,1.329366104309957
4,19-May-2017,1,15,stim.wav,0,22,7920,-1.2327242763417399,0,1.329366104309957
4,19-May-2017,1,15,stim.wav,0,23,8904,-5.983485703198276,0,1.329366104309957
4,19-May-2017,1,15,stim.wav,0,24,10000,1.4746539708799995,0,1.329366104309957
4,19-May-2017,1,15,stim.wav,1,0,100,1.354025925541221,1,1.329366104309957
4,19-May-2017,1,15,stim.wav,1,1,191,-2.204686692678512,1,1.329366104309957
4,19-May-2017,1,15,stim.wav,1,2,293,-1.8050320678984209,1,1.329366104309957
4,19-May-2017,1,15,stim.wav,1,3,406,-3.201752269668507,1,1.329366104309957
4,19-May-2017,1,15,stim.wav,1,4,533,-5.23750154668199,1,1.329366104309957
4,19-May-2017,1,15,stim.wav,1,5,673,-3.775149364255504,1,1.329366104309957
4,19-May-2017,1,15,stim.wav,1,6,830,-1.444805900142784,1,1.329366104309957
4,19-May-2017,1,15,stim.wav,1,7,1004,2.6689785434346467,1,1.329366104309957
4,19-May-2017,1,15,stim.wav,1,8,1199,5.896964094893274,1,1.329366104309957
4,19-May-2017,1,15,stim.wav,1,9,1416,-1.4439586098428772,1,1.329366104309957
4,19-May-2017,1,15,stim.wav,1,10,1657,-7.649136561240134,1,1.329366104309957
4,19-May-2017,1,15,stim.wav,1,11,1926,3.4186468181958225,1,1.329366104309957
4,19-May-2017,1,15,stim.wav,1,12,2226,1.4356069076260767,1,1.329366104309957
4,19-May-2017,1,15,stim.wav,1,13,2560,0.12041881988920754,1,1.329366104309957
4,19-May-2017,1,15,stim.wav,1,14,2932,-2.650236554738943,1,1.329366104309957
4,19-May-2017,1,15,stim.wav,1,15,3346,-7.821931563608368,1,1.329366104309957
4,19-May-2017,1,15,stim.wav,1,16,3808,2.9994028397873764,1,1.329366104309957
4,19-May-2017,1,15,stim.wav,1,17,4322,-0.8244612727883838,1,1.329366104309957
4,19-May-2017,1,15,stim.wav,1,18,4895,3.8449957606588283,1,1.329366104309957
4,19-May-2017,1,15,stim.wav,1,19,5534,-1.9390684080521805,1,1.329366104309957
4,19-May-2017,1,15,stim.wav,1,20,6245,10.417818427126067,1,1.329366104309957
4,19-May-2017,1,15,stim.wav,1,21,7037,-7.341748700096931,1,1.329366104309957
4,19-May-2017,1,15,stim.wav,1,22,7920,0.7339591114870045,1,1.329366104309957
4,19-May-2017,1,15,stim.wav,1,23,8904,-6.991546213253066,1,1.329366104309957
4,19-May-2017,1,15,stim.wav,1,24,10000,-1.7988766792908615,1,1.329366104309957
4,19-May-2017,1,16,stim.wav,0,0,100,9.1210578484217,0,1.77075619672849
4,19-May-2017,1,16,stim.wav,0,1,191,3.0047990591403546,0,1.77075619672849
4,19-May-2017,1,16,stim.wav,0,2,293,0.10316120075870958,0,1.77075619672849
4,19-May-2017,1,16,stim.wav,0,3,406,7.74532274158953,0,1.77075619672849
4,19-May-2017,1,16,stim.wav,0,4,533,-4.428107458915769,0,1.77075619672849
4,19-May-2017,1,16,stim.wav,0,5,673,5.888651853689945,0,1.77075619672849
4,19-May-2017,1,16,stim.wav,0,6,830,2.0040822677110532,0,1.77075619672849
4,19-May-2017,1,16,stim.wav,0,7,1004,8.97366241313846,0,1.77075619672849
4,19-May-2017,1,16,stim.wav,0,8,1199,-1.13801489747691,0,1.77075619672849
4,19-May-2017,1,16,stim.wav,0,9,1416,1.9365126807573085,0,1.77075619672849
4,19-May-2017,1,16,stim.wav,0,10,1657,-0.12397117780875616,0,1.77075619672849
4,19-May-2017,1,16,stim.wav,0,11,1926,-1.7542510225554788,0,1.77075619672849
4,19-May-2017,1,16,stim.wav,0,12,2226,-2.2906069970657756,0,1.77075619672849
4,19-May-2017,1,16,stim.wav,0,13,2560,-2.838409637574641,0,1.77075619672849
4,19-May-2017,1,16,stim.wav,0,14,2932,5.820820948806067,0,1.77075619672849
4,19-May-2017,1,16,stim.wav,0,15,3346,5.589272401989515,0,1.77075619672849
4,19-May-2017,1,16,stim.wav,0,16,3808,-2.2117679702036996,0,1.77075619672849
4,19-May-2017,1,16,stim.wav,0,17,4322,6.361144176143898,0,1.77075619672849
4,19-May-2017,1,16,stim.wav,0,18,4895,-3.3276112867324805,0,1.77075619672849
4,19-May-2017,1,16,stim.wav,0,19,5534,-0.562908253460034,0,1.77075619672849
4,19-May-2017,1,16,stim.wav,0,20,6245,-2.2262107525031114,0,1.77075619672849
4,19-May-2017,1,16,stim.wav,0,21,7037,-2.377890258000079,0,1.77075619672849
4,19-May-2017,1,16,stim.wav,0,22,7920,-1.1545765143964783,0,1.77075619672849
4,19-May-2017,1,16,stim.wav,0,23,8904,1.0616444206903954,0,1.77075619672849
4,19-May-2017,1,16,stim.wav,0,24,10000,-11.346666732620623,0,1.77075619672849
4,19-May-2017,1,16,stim.wav,1,0,100,1.6012177027618821,1,1.77075619672849
4,19-May-2017,1,16,stim.wav,1,1,191,7.1962376197344655,1,1.77075619672849
4,19-May-2017,1,16,stim.wav,1,2,293,3.8826851080352487,1,1.77075619672849
4,19-May-2017,1,16,stim.wav,1,3,406,-6.357716710096884,1,1.77075619672849
4,19-May-2017,1,16,stim.wav,1,4,533,-0.08082430687472995,1,1.77075619672849
4,19-May-2017,1,16,stim.wav,1,5,673,-8.039302995021913,1,1.77075619672849
4,19-May-2017,1,16,stim.wav,1,6,830,-3.6653756436913403,1,1.77075619672849
4,19-May-2017,1,16,stim.wav,1,7,1004,-0.9918328204830106,1,1.77075619672849
4,19-May-2017,1,16,stim.wav,1,8,1199,0.12041107877704621,1,1.77075619672849
4,19-May-2017,1,16,stim.wav,1,9,1416,3.6582848368201084,1,1.77075619672849
4,19-May-2017,1,16,stim.wav,1,10,1657,2.7833159624953137,1,1.77075619672849
4,19-May-2017,1,16,stim.wav,1,11,1926,1.9524519155206854,1,1.77075619672849
4,19-May-2017,1,16,stim.wav,1,12,2226,2.2935917587048413,1,1.77075619672849
4,19-May-2017,1,16,stim.wav,1,13,2560,3.735934879303385,1,1.77075619672849
4,19-May-2017,1,16,stim.wav,1,14,2932,3.505730606352146,1,1.77075619672849
4,19-May-2017,1,16,stim.wav,1,15,3346,-2.4863811820143935,1,1.77075619672849
4,19-May-2017,1,16,stim.wav,1,16,3808,2.088662686558656,1,1.77075619672849
4,19-May-2017,1,16,stim.wav,1,17,4322,-4.466784723829786,1,1.77075619672849
4,19-May-2017,1,16,stim.wav,1,18,4895,4.883173951266137,1,1.77075619672849
4,19-May-2017,1,16,stim.wav,1,19,5534,-2.633979880103979,1,1.77075619672849
4,19-May-2017,1,16,stim.wav,1,20,6245,-1.4772469128143306,1,1.77075619672849
4,19-May-2017,1,16,stim.wav,1,21,7037,-4.264244051437795,1,1.77075619672849
4,19-May-2017,1,16,stim.wav,1,22,7920,-5.559530942094092,1,1.77075619672849
4,19-May-2017,1,16,stim.wav,1,23,8904,-5.999347614253841,1,1.77075619672849
4,19-May-2017,1,16,stim.wav,1,24,10000,6.851080033859058,1,1.77075619672849
4,19-May-2017,1,17,stim.wav,0,0,100,5.006783950266601,0,0.7254555499869146
4,19-May-2017,1,17,stim.wav,0,1,191,4.049981729455458,0,0.7254555499869146
4,19-May-2017,1,17,stim.wav,0,2,293,2.7529952092530148,0,0.7254555499869146
4,19-May-2017,1,17,stim.wav,0,3,406,-1.5338119019454832,0,0.7254555499869146
4,19-May-2017,1,17,stim.wav,0,4,533,0.14393980535241324,0,0.7254555499869146
4,19-May-2017,1,17,stim.wav,0,5,673,-3.8327970832057727,0,0.7254555499869146
4,19-May-2017,1,17,stim.wav,0,6,830,6.235237832979811,0,0.7254555499869146
4,19-May-2017,1,17,stim.wav,0,7,1004,0.4648984640581402,0,0.7254555499869146
4,19-May-2017,1,17,stim.wav,0,8,1199,-5.271114524754296,0,0.7254555499869146
4,19-May-2017,1,17,stim.wav,0,9,1416,1.3415792317491948,0,0.7254555499869146
4,19-May-2017,1,17,stim.wav,0,10,1657,0.6316156550881331,0,0.7254555499869146
4,19-May-2017,1,17,stim.wav,0,11,1926,5.178950897508483,0,0.7254555499869146
4,19-May-2017,1,17,stim.wav,0,12,2226,-4.993310977702498,0,0.7254555499869146
4,19-May-2017,1,17,stim.wav,0,13,2560,-2.4752618470811125,0,0.7254555499869146
4,19-May-2017,1,17,stim.wav,0,14,2932,-3.1511365579069466,0,0.7254555499869146
4,19-May-2017,1,17,stim.wav,0,15,3346,-5.445252907448026,0,0.7254555499869146
4,19-May-2017,1,17,stim.wav,0,16,3808,2.2543435581384905,0,0.7254555499869146
4,19-May-2017,1,17,stim.wav,0,17,4322,0.9348476224469153,0,0.7254555499869146
4,19-May-2017,1,17,stim.wav,0,18,4895,-3.159700702072384,0,0.7254555499869146
4,19-May-2017,1,17,stim.wav,0,19,5534,1.267623187914536,0,0.7254555499869146
4,19-May-2017,1,17,stim.wav,0,20,6245,-9.8525777723091,0,0.7254555499869146
4,19-May-2017,1,17,stim.wav,0,21,7037,-0.5634403319812318,0,0.7254555499869146
4,19-May-2017,1,17,stim.wav,0,22,7920,-1.3414550802430245,0,0.7254555499869146
4,19-May-2017,1,17,stim.wav,0,23,8904,1.974965729378387,0,0.7254555499869146
4,19-May-2017,1,17,stim.wav,0,24,10000,-4.621683368452048,0,0.7254555499869146
4,19-May-2017,1,17,stim.wav,1,0,100,-1.9769431928729786,1,0.7254555499869146
4,19-May-2017,1,17,stim.wav,1,1,191,-7.417022495548577,1,0.7254555499869146
4,19-May-2017,1,17,stim.wav,1,2,293,0.35386330353026096,1,0.7254555499869146
4,19-May-2017,1,17,stim.wav,1,3,406,3.4566373054580737,1,0.7254555499869146
4,19-May-2017,1,17,stim.wav,1,4,533,0.8462598389584807,1,0.7254555499869146
4,19-May-2017,1,17,stim.wav,1,5,673,11.13280108975971,1,0.7254555499869146
4,19-May-2017,1,17,stim.wav,1,6,830,0.6265557056087669,1,0.7254555499869146
4,19-May-2017,1,17,stim.wav,1,7,1004,-3.9142452314409897,1,0.7254555499869146
4,19-May-2017,1,17,stim.wav,1,8,1199,-8.975174441376174,1,0.7254555499869146
4,19-May-2017,1,17,stim.wav,1,9,1416,2.9549578637061433,1,0.7254555499869146
4,19-May-2017,1,17,stim.wav,1,10,1657,-6.063819964903833,1,0.7254555499869146
4,19-May-2017,1,17,stim.wav,1,11,1926,-1.0432010113581507,1,0.7254555499869146
4,19-May-2017,1,17,stim.wav,1,12,2226,0.584386323696995,1,0.7254555499869146
4,19-May-2017,1,17,stim.wav,1,13,2560,4.426535235477642,1,0.7254555499869146
4,19-May-2017,1,17,stim.wav,1,14,2932,-8.565943455027249,1,0.7254555499869146
4,19-May-2017,1,17,stim.wav,1,15,3346,-6.04917655007882,1,0.7254555499869146
4,19-May-2017,1,17,stim.wav,1,16,3808,2.1748482160577383,1,0.7254555499869146
4,19-May-2017,1,17,stim.wav,1,17,4322,5.9527673378258505,1,0.7254555499869146
4,19-May-2017,1,17,stim.wav,1,18,4895,4.055808276381072,1,0.7254555499869146
4,19-May-2017,1,17,stim.wav,1,19,5534,0.9855663191130082,1,0.7254555499869146
4,19-May-2017,1,17,stim.wav,1,20,6245,3.2479324652036383,1,0.7254555499869146
4,19-May-2017,1,17,stim.wav,1,21,7037,-2.5617733729411323,1,0.7254555499869146
4,19-May-2017,1,17,stim.wav,1,22,7920,2.341113674849584,1,0.7254555499869146
4,19-May-2017,1,17,stim.wav,1,23,8904,1.2808216803336314,1,0.7254555499869146
4,19-May-2017,1,17,stim.wav,1,24,10000,-1.8888318595064675,1,0.7254555499869146
4,19-May-2017,1,18,stim.wav,0,0,100,1.1636226227385174,1,0.954180728435248
4,19-May-2017,1,18,stim.wav,0,1,191,-0.648651055412437,1,0.954180728435248
4,19-May-2017,1,18,stim.wav,0,2,293,-3.897476224454357,1,0.954180728435248
4,19-May-2017,1,18,stim.wav,0,3,406,-0.5892662265663561,1,0.954180728435248
4,19-May-2017,1,18,stim.wav,0,4,533,7.9984002681626265,1,0.954180728435248
4,19-May-2017,1,18,stim.wav,0,5,673,-3.5001043704014414,1,0.954180728435248
4,19-May-2017,1,18,stim.wav,0,6,830,-8.061320647659965,1,0.954180728435248
4,19-May-2017,1,18,stim.wav,0,7,1004,0.18579466073528117,1,0.954180728435248
4,19-May-2017,1,18,stim.wav,0,8,1199,1.757267472414974,1,0.954180728435248
4,19-May-2017,1,18,stim.wav,0,9,1416,2.3584451382882565,1,0.954180728435248
4,19-May-2017,1,18,stim.wav,0,10,1657,-5.995829572037238,1,0.954180728435248
4,19-May-2017,1,18,stim.wav,0,11,1926,-4.970280784694522,1,0.954180728435248
4,19-May-2017,1,18,stim.wav,0,12,2226,-9.706048823869892,1,0.954180728435248
4,19-May-2017,1,18,stim.wav,0,13,2560,-4.025831028155062,1,0.954180728435248
4,19-May-2017,1,18,stim.wav,0,14,2932,0.2541692644695895,1,0.954180728435248
4,19-May-2017,1,18,stim.wav,0,15,3346,0.3563686675118707,1,0.954180728435248
4,19-May-2017,1,18,stim.wav,0,16,3808,1.9139048605653353,1,0.954180728435248
4,19-May-2017,1,18,stim.wav,0,17,4322,0.5582204460654782,1,0.954180728435248
4,19-May-2017,1,18,stim.wav,0,18,4895,1.5638917445911857,1,0.954180728435248
4,19-May-2017,1,18,stim.wav,0,19,5534,-9.222907414878524,1,0.954180728435248
4,19-May-2017,1,18,stim.wav,0,20,6245,7.731804665546912,1,0.954180728435248
4,19-May-2017,1,18,stim.wav,0,21,7037,-3.6173984972326245,1,0.954180728435248
4,19-May-2017,1,18,stim.wav,0,22,7920,4.986913306026187,1,0.954180728435248
4,19-May-2017,1,18,stim.wav,0,23,8904,-7.154821726756647,1,0.954180728435248
4,19-May-2017,1,18,stim.wav,0,24,10000,6.924881523283364,1,0.954180728435248
4,19-May-2017,1,18,stim.wav,1,0,100,-9.451121909314988,0,0.954180728435248
4,19-May-2017,1,18,stim.wav,1,1,191,8.797958036047719,0,0.954180728435248
4,19-May-2017,1,18,stim.wav,1,2,293,7.63490967441157,0,0.954180728435248
4,19-May-2017,1,18,stim.wav,1,3,406,-1.3432932153575607,0,0.954180728435248
4,19-May-2017,1,18,stim.wav,1,4,533,4.5112988797232205,0,0.954180728435248
4,19-May-2017,1,18,stim.wav,1,5,673,1.9360464272544835,0,0.954180728435248
4,19-May-2017,1,18,stim.wav,1,6,830,-5.241277427958937,0,0.954180728435248
4,19-May-2017,1,18,stim.wav,1,7,1004,-4.297609577279662,0,0.954180728435248
4,19-May-2017,1,18,stim.wav,1,8,1199,-3.116746800182766,0,0.954180728435248
4,19-May-2017,1,18,stim.wav,1,9,1416,0.31349625603266607,0,0.954180728435248
4,19-May-2017,1,18,stim.wav,1,10,1657,-1.9766229499683647,0,0.954180728435248
4,19-May-2017,1,18,stim.wav,1,11,1926,-2.5392016443493572,0,0.954180728435248
4,19-May-2017,1,18,stim.wav,1,12,2226,-2.0677888662153383,0,0.954180728435248
4,19-May-2017,1,18,stim.wav,1,13,2560,1.123706291538179,0,0.954180728435248
4,19-May-2017,1,18,stim.wav,1,14,2932,9.04795823192345,0,0.954180728435248
4,19-May-2017,1,18,stim.wav,1,15,3346,-3.5131172825076367,0,0.954180728435248
4,19-May-2017,1,18,stim.wav,1,16,3808,-5.487750426138255,0,0.954180728435248
4,19-May-2017,1,18,stim.wav,1,17,4322,-0.055803863705692014,0,0.954180728435248
4,19-May-2017,1,18,stim.wav,1,18,4895,3.7401192998953654,0,0.954180728435248
4,19-May-2017,1,18,stim.wav,1,19,5534,-3.8424226762507407,0,0.954180728435248
4,19-May-2017,1,18,stim.wav,1,20,6245,-3.7386938747628564,0,0.954180728435248
4,19-May-2017,1,18,stim.wav,1,21,7037,2.4827435706818726,0,0.954180728435248
4,19-May-2017,1,18,stim.wav,1,22,7920,2.67449700808428,0,0.954180728435248
4,19-May-2017,1,18,stim.wav,1,23,8904,-3.2157318165078115,0,0.954180728435248
4,19-May-2017,1,18,stim.wav,1,24,10000,1.8274670326508882,0,0.954180728435248
4,19-May-2017,1,19,stim.wav,0,0,100,-1.733499696556543,0,1.0743747680128903
4,19-May-2017,1,19,stim.wav,0,1,191,3.9886823581530755,0,1.0743747680128903
4,19-May-2017,1,19,stim.wav,0,2,293,7.648944308424818,0,1.0743747680128903
4,19-May-2017,1,19,stim.wav,0,3,406,-0.38613905661206493,0,1.0743747680128903
4,19-May-2017,1,19,stim.wav,0,4,533,-1.892435340676477,0,1.0743747680128903
4,19-May-2017,1,19,stim.wav,0,5,673,1.1504846074095054,0,1.0743747680128903
4,19-May-2017,1,19,stim.wav,0,6,830,0.5418055646882661,0,1.0743747680128903
4,19-May-2017,1,19,stim.wav,0,7,1004,-4.27306382652139,0,1.0743747680128903
4,19-May-2017,1,19,stim.wav,0,8,1199,-5.729130922044377,0,1.0743747680128903
4,19-May-2017,1,19,stim.wav,0,9,1416,0.18163989245034926,0,1.0743747680128903
4,19-May-2017,1,19,stim.wav,0,10,1657,4.215613203688735,0,1.0743747680128903
4,19-May-2017,1,19,stim.wav,0,11,1926,-2.061709304453884,0,1.0743747680128903
4,19-May-2017,1,19,stim.wav,0,12,2226,-1.199999483279536,0,1.0743747680128903
4,19-May-2017,1,19,stim.wav,0,13,2560,-5.539669182861767,0,1.0743747680128903
4,19-May-2017,1,19,stim.wav,0,14,2932,5.6661008869186515,0,1.0743747680128903
4,19-May-2017,1,19,stim.wav,0,15,3346,-4.324212920176579,0,1.0743747680128903
4,19-May-2017,1,19,stim.wav,0,16,3808,8.393826744273454,0,1.0743747680128903
4,19-May-2017,1,19,stim.wav,0,17,4322,9.45050485750598,0,1.0743747680128903
4,19-May-2017,1,19,stim.wav,0,18,4895,-4.269946107495674,0,1.0743747680128903
4,19-May-2017,1,19,stim.wav,0,19,5534,4.002300075434337,0,1.0743747680128903
4,19-May-2017,1,19,stim.wav,0,20,6245,0.3785654148539229,0,1.0743747680128903
4,19-May-2017,1,19,stim.wav,0,21,7037,0.9851785023270777,0,1.0743747680128903
4,19-May-2017,1,19,stim.wav,0,22,7920,6.674792082730354,0,1.0743747680128903
4,19-May-2017,1,19,stim.wav,0,23,8904,-2.4667287849765946,0,1.0743747680128903
4,19-May-2017,1,19,stim.wav,0,24,10000,9.55127235808402,0,1.0743747680128903
4,19-May-2017,1,19,stim.wav,1,0,100,-4.882546758218018,1,1.0743747680128903
4,19-May-2017,1,19,stim.wav,1,1,191,-1.1444068963233165,1,1.0743747680128903
4,19-May-2017,1,19,stim.wav,1,2,293,-5.292178938003184,1,1.0743747680128903
4,19-May-2017,1,19,stim.wav,1,3,406,3.570521632100261,1,1.0743747680128903
4,19-May-2017,1,19,stim.wav,1,4,533,6.314276266876092,1,1.0743747680128903
4,19-May-2017,1,19,stim.wav,1,5,673,-1.392054382385788,1,1.0743747680128903
4,19-May-2017,1,19,stim.wav,1,6,830,-4.320509251891949,1,1.0743747680128903
4,19-May-2017,1,19,stim.wav,1,7,1004,2.947254669216997,1,1.0743747680128903
4,19-May-2017,1,19,stim.wav,1,8,1199,-4.760328339033512,1,1.0743747680128903
4,19-May-2017,1,19,stim.wav,1,9,1416,-9.0357812466672,1,1.0743747680128903
4,19-May-2017,1,19,stim.wav,1,10,1657,-6.50605060036713,1,1.0743747680128903
4,19-May-2017,1,19,stim.wav,1,11,1926,7.729463175321865,1,1.0743747680128903
4,19-May-2017,1,19,stim.wav,1,12,2226,1.0659238148898973,1,1.0743747680128903
4,19-May-2017,1,19,stim.wav,1,13,2560,-11.275131384013788,1,1.0743747680128903
4,19-May-2017,1,19,stim.wav,1,14,2932,-12.425010130969,1,1.0743747680128903
4,19-May-2017,1,19,stim.wav,1,15,3346,0.22927115389369207,1,1.0743747680128903
4,19-May-2017,1,19,stim.wav,1,16,3808,1.875516759356757,1,1.0743747680128903
4,19-May-2017,1,19,stim.wav,1,17,4322,-9.291016253888216,1,1.0743747680128903
4,19-May-2017,1,19,stim.wav,1,18,4895,1.804976291917877,1,1.0743747680128903
4,19-May-2017,1,19,stim.wav,1,19,5534,-2.762377880233085,1,1.0743747680128903
4,19-May-2017,1,19,stim.wav,1,20,6245,3.6405171601392343,1,1.0743747680128903
4,19-May-2017,1,19,stim.wav,1,21,7037,3.8408757114479384,1,1.0743747680128903
4,19-May-2017,1,19,stim.wav,1,22,7920,3.7700226612886127,1,1.0743747680128903
4,19-May-2017,1,19,stim.wav,1,23,8904,0.48622162944571495,1,1.0743747680128903
4,19-May-2017,1,19,stim.wav,1,24,10000,-6.685370297176001,1,1.0743747680128903
4,19-May-2017,1,20,stim.wav,0,0,100,-0.17138877078737047,0,1.848033690087458
4,19-May-2017,1,20,stim.wav,0,1,191,10.059553580956507,0,1.848033690087458
4,19-May-2017,1,20,stim.wav,0,2,293,-0.4475508632686217,0,1.848033690087458
4,19-May-2017,1,20,stim.wav,0,3,406,-4.910112553214271,0,1.848033690087458
4,19-May-2017,1,20,stim.wav,0,4,533,-1.7487826203922021,0,1.848033690087458
4,19-May-2017,1,20,stim.wav,0,5,673,-2.931464344855818,0,1.848033690087458
4,19-May-2017,1,20,stim.wav,0,6,830,0.48321972776464556,0,1.848033690087458
4,19-May-2017,1,20,stim.wav,0,7,1004,-5.029491913544314,0,1.848033690087458
4,19-May-2017,1,20,stim.wav,0,8,1199,2.7370511035559515,0,1.848033690087458
4,19-May-2017,1,20,stim.wav,0,9,1416,5.267818864426596,0,1.848033690087458
4,19-May-2017,1,20,stim.wav,0,10,1657,0.14833124375515544,0,1.848033690087458
4,19-May-2017,1,20,stim.wav,0,11,1926,5.604775231779921,0,1.848033690087458
4,19-May-2017,1,20,stim.wav,0,12,2226,-3.141933894316976,0,1.848033690087458
4,19-May-2017,1,20,stim.wav,0,13,2560,-7.76024036128378,0,1.848033690087458
4,19-May-2017,1,20,stim.wav,0,14,2932,-8.441278800811617,0,1.848033690087458
4,19-May-2017,1,20,stim.wav,0,15,3346,-2.0280015410534116,0,1.848033690087458
4,19-May-2017,1,20,stim.wav,0,16,3808,-3.3542817782451557,0,1.848033690087458
4,19-May-2017,1,20,stim.wav,0,17,4322,-3.7586060816413243,0,1.848033690087458
4,19-May-2017,1,20,stim.wav,0,18,4895,-6.575552489581703,0,1.848033690087458
4,19-May-2017,1,20,stim.wav,0,19,5534,-7.179416370688027,0,1.848033690087458
4,19-May-2017,1,20,stim.wav,0,20,6245,-10.468574112899143,0,1.848033690087458
4,19-May-2017,1,20,stim.wav,0,21,7037,3.2236262618404163,0,1.848033690087458
4,19-May-2017,1,20,stim.wav,0,22,7920,-10.241172959584654,0,1.848033690087458
4,19-May-2017,1,20,stim.wav,0,23,8904,-0.8381306138598552,0,1.848033690087458
4,19-May-2017,1,20,stim.wav,0,24,10000,-4.4691797966988025,0,1.848033690087458
4,19-May-2017,1,20,stim.wav,1,0,100,-1.5837192775309221,1,1.848033690087458
4,19-May-2017,1,20,stim.wav,1,1,191,10.353941031210859,1,1.848033690087458
4,19-May-2017,1,20,stim.wav,1,2,293,-1.5877997082797082,1,1.848033690087458
4,19-May-2017,1,20,stim.wav,1,3,406,0.5821682961069237,1,1.848033690087458
4,19-May-2017,1,20,stim.wav,1,4,533,-7.158445583408437,1,1.848033690087458
4,19-May-2017,1,20,stim.wav,1,5,673,1.3281883648964918,1,1.848033690087458
4,19-May-2017,1,20,stim.wav,1,6,830,6.953993611474397,1,1.848033690087458
4,19-May-2017,1,20,stim.wav,1,7,1004,-3.63580168842947,1,1.848033690087458
4,19-May-2017,1,20,stim.wav,1,8,1199,7.117536391711697,1,1.848033690087458
4,19-May-2017,1,20,stim.wav,1,9,1416,-4.874854863950743,1,1.848033690087458
4,19-May-2017,1,20,stim.wav,1,10,1657,4.20654283217914,1,1.848033690087458
4,19-May-2017,1,20,stim.wav,1,11,1926,-3.9765067390760804,1,1.848033690087458
4,19-May-2017,1,20,stim.wav,1,12,2226,-6.817769891261703,1,1.848033690087458
4,19-May-2017,1,20,stim.wav,1,13,2560,-0.6446293983599027,1,1.848033690087458
4,19-May-2017,1,20,stim.wav,1,14,2932,-4.050995605084644,1,1.848033690087458
4,19-May-2017,1,20,stim.wav,1,15,3346,-2.7693909334801536,1,1.848033690087458
4,19-May-2017,1,20,stim.wav,1,16,3808,4.569042309048795,1,1.848033690087458
4,19-May-2017,1,20,stim.wav,1,17,4322,-1.9952914713679035,1,1.848033690087458
4,19-May-2017,1,20,stim.wav,1,18,4895,-6.28292982900861,1,1.848033690087458
4,19-May-2017,1,20,stim.wav,1,19,5534,8.723044541998227,1,1.848033690087458
4,19-May-2017,1,20,stim.wav,1,20,6245,2.3585603257005467,1,1.848033690087458
4,19-May-2017,1,20,stim.wav,1,21,7037,-2.7752269164372034,1,1.848033690087458
4,19-May-2017,1,20,stim.wav,1,22,7920,-3.963663964853298,1,1.848033690087458
4,19-May-2017,1,20,stim.wav,1,23,8904,-0.1380474841945212,1,1.848033690087458
4,19-May-2017,1,20,stim.wav,1,24,10000,0.9881276967499784,1,1.848033690087458
4,19-May-2017,1,21,stim.wav,0,0,100,-3.804884258587549,0,1.1414556047230437
4,19-May-2017,1,21,stim.wav,0,1,191,4.122985170142171,0,1.1414556047230437
4,19-May-2017,1,21,stim.wav,0,2,293,6.8465877689500125,0,1.1414556047230437
4,19-May-2017,1,21,stim.wav,0,3,406,-1.9611590126439387,0,1.1414556047230437
4,19-May-2017,1,21,stim.wav,0,4,533,3.9076865320929874,0,1.1414556047230437
4,19-May-2017,1,21,stim.wav,0,5,673,-6.9046087526726865,0,1.1414556047230437
4,19-May-2017,1,21,stim.wav,0,6,830,-1.7059213467367038,0,1.1414556047230437
4,19-May-2017,1,21,stim.wav,0,7,1004,6.184792891925683,0,1.1414556047230437
4,19-May-2017,1,21,stim.wav,0,8,1199,1.1579842632589885,0,1.1414556047230437
4,19-May-2017,1,21,stim.wav,0,9,1416,0.11216395953508985,0,1.1414556047230437
4,19-May-2017,1,21,stim.wav,0,10,1657,4.709563219743148,0,1.1414556047230437
4,19-May-2017,1,21,stim.wav,0,11,1926,6.130443465451782,0,1.1414556047230437
4,19-May-2017,1,21,stim.wav,0,12,2226,12.310696812616778,0,1.1414556047230437
4,19-May-2017,1,21,stim.wav,0,13,2560,4.3495177288321925,0,1.1414556047230437
4,19-May-2017,1,21,stim.wav,0,14,2932,5.884033517090098,0,1.1414556047230437
4,19-May-2017,1,21,stim.wav,0,15,3346,6.519288677594081,0,1.1414556047230437
4,19-May-2017,1,21,stim.wav,0,16,3808,5.128056523962835,0,1.1414556047230437
4,19-May-2017,1,21,stim.wav,0,17,4322,9.906781757926481,0,1.1414556047230437
4,19-May-2017,1,21,stim.wav,0,18,4895,8.174943969590334,0,1.1414556047230437
4,19-May-2017,1,21,stim.wav,0,19,5534,4.621808594538879,0,1.1414556047230437
4,19-May-2017,1,21,stim.wav,0,20,6245,5.488957709967953,0,1.1414556047230437
4,19-May-2017,1,21,stim.wav,0,21,7037,-0.2338247044116447,0,1.1414556047230437
4,19-May-2017,1,21,stim.wav,0,22,7920,5.3272596484697115,0,1.1414556047230437
4,19-May-2017,1,21,stim.wav,0,23,8904,-1.743257378765635,0,1.1414556047230437
4,19-May-2017,1,21,stim.wav,0,24,10000,1.2735162974155279,0,1.1414556047230437
4,19-May-2017,1,21,stim.wav,1,0,100,4.039321713206327,1,1.1414556047230437
4,19-May-2017,1,21,stim.wav,1,1,191,-0.5539091369713283,1,1.1414556047230437
4,19-May-2017,1,21,stim.wav,1,2,293,0.8714452953507423,1,1.1414556047230437
4,19-May-2017,1,21,stim.wav,1,3,406,0.3847778775404765,1,1.1414556047230437
4,19-May-2017,1,21,stim.wav,1,4,533,-4.010913775914804,1,1.1414556047230437
4,19-May-2017,1,21,stim.wav,1,5,673,3.60906049099383,1,1.1414556047230437
4,19-May-2017,1,21,stim.wav,1,6,830,0.4703051430911293,1,1.1414556047230437
4,19-May-2017,1,21,stim.wav,1,7,1004,0.2849065110716503,1,1.1414556047230437
4,19-May-2017,1,21,stim.wav,1,8,1199,6.135443298643393,1,1.1414556047230437
4,19-May-2017,1,21,stim.wav,1,9,1416,-6.328763194753444,1,1.1414556047230437
4,19-May-2017,1,21,stim.wav,1,10,1657,1.8299660299643028,1,1.1414556047230437
4,19-May-2017,1,21,stim.wav,1,11,1926,2.2724484759818404,1,1.1414556047230437
4,19-May-2017,1,21,stim.wav,1,12,2226,-3.176100531146881,1,1.1414556047230437
4,19-May-2017,1,21,stim.wav,1,13,2560,-3.3054224657567537,1,1.1414556047230437
4,19-May-2017,1,21,stim.wav,1,14,2932,-0.8269174623467122,1,1.1414556047230437
4,19-May-2017,1,21,stim.wav,1,15,3346,-6.50784664965848,1,1.1414556047230437
4,19-May-2017,1,21,stim.wav,1,16,3808,3.1824650590726655,1,1.1414556047230437
4,19-May-2017,1,21,stim.wav,1,17,4322,-1.0957922141514969,1,1.1414556047230437
4,19-May-2017,1,21,stim.wav,1,18,4895,6.936921917134669,1,1.1414556047230437
4,19-May-2017,1,21,stim.wav,1,19,5534,-1.505666892992338,1,1.1414556047230437
4,19-May-2017,1,21,stim.wav,1,20,6245,4.114320341869953,1,1.1414556047230437
4,19-May-2017,1,21,stim.wav,1,21,7037,0.6943442693892405,1,1.1414556047230437
4,19-May-2017,1,21,stim.wav,1,22,7920,-0.6906482975142922,1,1.1414556047230437
4,19-May-2017,1,21,stim.wav,1,23,8904,-2.4549758145433453,1,1.1414556047230437
4,19-May-2017,1,21,stim.wav,1,24,10000,-3.3131639300760503,1,1.1414556047230437
4,19-May-2017,1,22,stim.wav,0,0,100,9.481214165212467,1,1.5141214081553411
4,19-May-2017,1,22,stim.wav,0,1,191,4.527951166407239,1,1.5141214081553411
4,19-May-2017,1,22,stim.wav,0,2,293,1.0367501537492965,1,1.5141214081553411
4,19-May-2017,1,22,stim.wav,0,3,406,2.56508992286002,1,1.5141214081553411
4,19-May-2017,1,22,stim.wav,0,4,533,-1.1897131975382944,1,1.5141214081553411
4,19-May-2017,1,22,stim.wav,0,5,673,-1.7470091444920055,1,1.5141214081553411
4,19-May-2017,1,22,stim.wav,0,6,830,-1.497741469789482,1,1.5141214081553411
4,19-May-2017,1,22,stim.wav,0,7,1004,-3.606586865374352,1,1.5141214081553411
4,19-May-2017,1,22,stim.wav,0,8,1199,5.360351785613087,1,1.5141214081553411
4,19-May-2017,1,22,stim.wav,0,9,1416,-1.3816181386258328,1,1.5141214081553411
4,19-May-2017,1,22,stim.wav,0,10,1657,0.9218746075188957,1,1.5141214081553411
4,19-May-2017,1,22,stim.wav,0,11,1926,6.583407860876564,1,1.5141214081553411
4,19-May-2017,1,22,stim.wav,0,12,2226,3.54659806610214,1,1.5141214081553411
4,19-May-2017,1,22,stim.wav,0,13,2560,-2.6792756308136463,1,1.5141214081553411
4,19-May-2017,1,22,stim.wav,0,14,2932,-2.775463823380508,1,1.5141214081553411
4,19-May-2017,1,22,stim.wav,0,15,3346,8.424799741350084,1,1.5141214081553411
4,19-May-2017,1,22,stim.wav,0,16,3808,7.0503537122237585,1,1.5141214081553411
4,19-May-2017,1,22,stim.wav,0,17,4322,5.768819055622879,1,1.5141214081553411
4,19-May-2017,1,22,stim.wav,0,18,4895,0.29465483961261163,1,1.5141214081553411
4,19-May-2017,1,22,stim.wav,0,19,5534,8.032553238601878,1,1.5141214081553411
4,19-May-2017,1,22,stim.wav,0,20,6245,4.4356340034627015,1,1.5141214081553411
4,19-May-2017,1,22,stim.wav,0,21,7037,2.96724451838917,1,1.5141214081553411
4,19-May-2017,1,22,stim.wav,0,22,7920,3.2002537737922347,1,1.5141214081553411
4,19-May-2017,1,22,stim.wav,0,23,8904,-0.4091663367163244,1,1.5141214081553411
4,19-May-2017,1,22,stim.wav,0,24,10000,-2.4914460369421625,1,1.5141214081553411
4,19-May-2017,1,22,stim.wav,1,0,100,-3.4179679488309906,0,1.5141214081553411
4,19-May-2017,1,22,stim.wav,1,1,191,-5.018057365579585,0,1.5141214081553411
4,19-May-2017,1,22,stim.wav,1,2,293,-2.582126596390716,0,1.5141214081553411
4,19-May-2017,1,22,stim.wav,1,3,406,0.9430148291112651,0,1.5141214081553411
4,19-May-2017,1,22,stim.wav,1,4,533,3.742707917213124,0,1.5141214081553411
4,19-May-2017,1,22,stim.wav,1,5,673,3.5901067614588174,0,1.5141214081553411
4,19-May-2017,1,22,stim.wav,1,6,830,1.2683119738116866,0,1.5141214081553411
4,19-May-2017,1,22,stim.wav,1,7,1004,-0.6021895053308866,0,1.5141214081553411
4,19-May-2017,1,22,stim.wav,1,8,1199,-2.146948489068402,0,1.5141214081553411
4,19-May-2017,1,22,stim.wav,1,9,1416,-1.5047201949572937,0,1.5141214081553411
4,19-May-2017,1,22,stim.wav,1,10,1657,-9.704935640665601,0,1.5141214081553411
4,19-May-2017,1,22,stim.wav,1,11,1926,1.0327387284693998,0,1.5141214081553411
4,19-May-2017,1,22,stim.wav,1,12,2226,3.6658526605067414,0,1.5141214081553411
4,19-May-2017,1,22,stim.wav,1,13,2560,5.087648614702339,0,1.5141214081553411
4,19-May-2017,1,22,stim.wav,1,14,2932,5.9356204705128786,0,1.5141214081553411
4,19-May-2017,1,22,stim.wav,1,15,3346,9.103800485374286,0,1.5141214081553411
4,19-May-2017,1,22,stim.wav,1,16,3808,7.005478566421871,0,1.5141214081553411
4,19-May-2017,1,22,stim.wav,1,17,4322,-1.4278888557552003,0,1.5141214081553411
4,19-May-2017,1,22,stim.wav,1,18,4895,-7.351331464889029,0,1.5141214081553411
4,19-May-2017,1,22,stim.wav,1,19,5534,4.339000687295147,0,1.5141214081553411
4,19-May-2017,1,22,stim.wav,1,20,6245,1.961013473036157,0,1.5141214081553411
4,19-May-2017,1,22,stim.wav,1,21,7037,3.4351998481441672,0,1.5141214081553411
4,19-May-2017,1,22,stim.wav,1,22,7920,-8.723321599614842,0,1.5141214081553411
4,19-May-2017,1,22,stim.wav,1,23,8904,-3.384458096014184,0,1.5141214081553411
4,19-May-2017,1,22,stim.wav,1,24,10000,-0.574998802969086,0,1.5141214081553411
4,19-May-2017,1,23,stim.wav,0,0,100,-0.23455416737231743,1,0.7124810347865206
4,19-May-2017,1,23,stim.wav,0,1,191,4.863978076095528,1,0.7124810347865206
4,19-May-2017,1,23,stim.wav,0,2,293,-4.605269751937085,1,0.7124810347865206
4,19-May-2017,1,23,stim.wav,0,3,406,4.019923426978919,1,0.7124810347865206
4,19-May-2017,1,23,stim.wav,0,4,533,-3.690871749350466,1,0.7124810347865206
4,19-May-2017,1,23,stim.wav,0,5,673,-0.981788154225039,1,0.7124810347865206
4,19-May-2017,1,23,stim.wav,0,6,830,1.6539384376963164,1,0.7124810347865206
4,19-May-2017,1,23,stim.wav,0,7,1004,6.1170952255941575,1,0.7124810347865206
4,19-May-2017,1,23,stim.wav,0,8,1199,-3.800925159030541,1,0.7124810347865206
4,19-May-2017,1,23,stim.wav,0,9,1416,2.3657916471740053,1,0.7124810347865206
4,19-May-2017,1,23,stim.wav,0,10,1657,5.3590465839139,1,0.7124810347865206
4,19-May-2017,1,23,stim.wav,0,11,1926,-9.525344297949777,1,0.7124810347865206
4,19-May-2017,1,23,stim.wav,0,12,2226,6.646586871398769,1,0.7124810347865206
4,19-May-2017,1,23,stim.wav,0,13,2560,1.5495651391531473,1,0.7124810347865206
4,19-May-2017,1,23,stim.wav,0,14,2932,7.481035648617929,1,0.7124810347865206
4,19-May-2017,1,23,stim.wav,0,15,3346,1.8620339682611045,1,0.7124810347865206
4,19-May-2017,1,23,stim.wav,0,16,3808,2.1994321551631395,1,0.7124810347865206
4,19-May-2017,1,23,stim.wav,0,17,4322,-2.5842581339500126,1,0.7124810347865206
4,19-May-2017,1,23,stim.wav,0,18,4895,3.5846777042083304,1,0.7124810347865206
4,19-May-2017,1,23,stim.wav,0,19,5534,-3.2223257902458586,1,0.7124810347865206
4,19-May-2017,1,23,stim.wav,0,20,6245,-8.635262225276266,1,0.7124810347865206
4,19-May-2017,1,23,stim.wav,0,21,7037,0.15711941111662192,1,0.7124810347865206
4,19-May-2017,1,23,stim.wav,0,22,7920,-1.0004935637351382,1,0.7124810347865206
4,19-May-2017,1,23,stim.wav,0,23,8904,-3.1924607265369342,1,0.7124810347865206
4,19-May-2017,1,23,stim.wav,0,24,10000,5.080086148044116,1,0.7124810347865206
4,19-May-2017,1,23,stim.wav,1,0,100,6.4299234316122345,0,0.7124810347865206
4,19-May-2017,1,23,stim.wav,1,1,191,-4.569915739561691,0,0.7124810347865206
4,19-May-2017,1,23,stim.wav,1,2,293,-10.60001000140808,0,0.7124810347865206
4,19-May-2017,1,23,stim.wav,1,3,406,-5.5423251489618135,0,0.7124810347865206
4,19-May-2017,1,23,stim.wav,1,4,533,-0.9095895914708251,0,0.7124810347865206
4,19-May-2017,1,23,stim.wav,1,5,673,6.138732271658692,0,0.7124810347865206
4,19-May-2017,1,23,stim.wav,1,6,830,-2.645633035623352,0,0.7124810347865206
4,19-May-2017,1,23,stim.wav,1,7,1004,-3.5391465279405656,0,0.7124810347865206
4,19-May-2017,1,23,stim.wav,1,8,1199,-5.4416737651184865,0,0.7124810347865206
4,19-May-2017,1,23,stim.wav,1,9,1416,1.2110861157910944,0,0.7124810347865206
4,19-May-2017,1,23,stim.wav,1,10,1657,4.749414654869749,0,0.7124810347865206
4,19-May-2017,1,23,stim.wav,1,11,1926,2.4283464460980153,0,0.7124810347865206
4,19-May-2017,1,23,stim.wav,1,12,2226,7.8752878456339825,0,0.7124810347865206
4,19-May-2017,1,23,stim.wav,1,13,2560,-0.41407989937416506,0,0.7124810347865206
4,19-May-2017,1,23,stim.wav,1,14,2932,-4.439058266480612,0,0.7124810347865206
4,19-May-2017,1,23,stim.wav,1,15,3346,-3.5562405671504065,0,0.7124810347865206
4,19-May-2017,1,23,stim.wav,1,16,3808,0.007188880334287469,0,0.7124810347865206
4,19-May-2017,1,23,stim.wav,1,17,4322,5.100375602314212,0,0.7124810347865206
4,19-May-2017,1,23,stim.wav,1,18,4895,-2.3025950068743817,0,0.7124810347865206
4,19-May-2017,1,23,stim.wav,1,19,5534,3.5315508710320334,0,0.7124810347865206
4,19-May-2017,1,23,stim.wav,1,20,6245,-6.5251564160897555,0,0.7124810347865206
4,19-May-2017,1,23,stim.wav,1,21,7037,-5.247002646082258,0,0.7124810347865206
4,19-May-2017,1,23,stim.wav,1,22,7920,-8.067515573209542,0,0.7124810347865206
4,19-May-2017,1,23,stim.wav,1,23,8904,-6.082185494799086,0,0.7124810347865206
4,19-May-2017,1,23,stim.wav,1,24,10000,4.514358633447105,0,0.7124810347865206
4,19-May-2017,1,24,stim.wav,0,0,100,2.399462295212325,0,1.6219207934001911
4,19-May-2017,1,24,stim.wav,0,1,191,-6.165008056334507,0,1.6219207934001911
4,19-May-2017,1,24,stim.wav,0,2,293,-5.579781990695309,0,1.6219207934001911
4,19-May-2017,1,24,stim.wav,0,3,406,-0.6303992571437704,0,1.6219207934001911
4,19-May-2017,1,24,stim.wav,0,4,533,4.427919755077691,0,1.6219207934001911
4,19-May-2017,1,24,stim.wav,0,5,673,-7.562417744813553,0,1.6219207934001911
4,19-May-2017,1,24,stim.wav,0,6,830,12.190444425637097,0,1.6219207934001911
4,19-May-2017,1,24,stim.wav,0,7,1004,0.07650341358059498,0,1.6219207934001911
4,19-May-2017,1,24,stim.wav,0,8,1199,-2.9086961124991944,0,1.6219207934001911
4,19-May-2017,1,24,stim.wav,0,9,1416,-1.689154015729342,0,1.6219207934001911
4,19-May-2017,1,24,stim.wav,0,10,1657,-0.7828413425461012,0,1.6219207934001911
4,19-May-2017,1,24,stim.wav,0,11,1926,-3.583178101568208,0,1.6219207934001911
4,19-May-2017,1,24,stim.wav,0,12,2226,2.346065003384234,0,1.6219207934001911
4,19-May-2017,1,24,stim.wav,0,13,2560,2.5821771809104597,0,1.6219207934001911
4,19-May-2017,1,24,stim.wav,0,14,2932,-0.6227959605446303,0,1.6219207934001911
4,19-May-2017,1,24,stim.wav,0,15,3346,-9.959180389909392,0,1.6219207934001911
4,19-May-2017,1,24,stim.wav,0,16,3808,8.13791632692713,0,1.6219207934001911
4,19-May-2017,1,24,stim.wav,0,17,4322,-2.644874342981942,0,1.6219207934001911
4,19-May-2017,1,24,stim.wav,0,18,4895,-5.368410464152263,0,1.6219207934001911
4,19-May-2017,1,24,stim.wav,0,19,5534,-1.2643896883341688,0,1.6219207934001911
4,19-May-2017,1,24,stim.wav,0,20,6245,3.0229941141917323,0,1.6219207934001911
4,19-May-2017,1,24,stim.wav,0,21,7037,-9.089971838952293,0,1.6219207934001911
4,19-May-2017,1,24,stim.wav,0,22,7920,3.5400644770808136,0,1.6219207934001911
4,19-May-2017,1,24,stim.wav,0,23,8904,0.025716496575212116,0,1.6219207934001911
4,19-May-2017,1,24,stim.wav,0,24,10000,-4.3558160040700225,0,1.6219207934001911
4,19-May-2017,1,24,stim.wav,1,0,100,8.070885076041495,1,1.6219207934001911
4,19-May-2017,1,24,stim.wav,1,1,191,-6.473546541906949,1,1.6219207934001911
4,19-May-2017,1,24,stim.wav,1,2,293,1.5275535646455884,1,1.6219207934001911
4,19-May-2017,1,24,stim.wav,1,3,406,1.8155318532237397,1,1.6219207934001911
4,19-May-2017,1,24,stim.wav,1,4,533,-3.921256102574209,1,1.6219207934001911
4,19-May-2017,1,24,stim.wav,1,5,673,1.534826451515404,1,1.6219207934001911
4,19-May-2017,1,24,stim.wav,1,6,830,-3.8554378689694238,1,1.6219207934001911
4,19-May-2017,1,24,stim.wav,1,7,1004,-3.8230710879262646,1,1.6219207934001911
4,19-May-2017,1,24,stim.wav,1,8,1199,3.0171858439902968,1,1.6219207934001911
4,19-May-2017,1,24,stim.wav,1,9,1416,4.487552432416651,1,1.6219207934001911
4,19-May-2017,1,24,stim.wav,1,10,1657,-0.7139253756420806,1,1.6219207934001911
4,19-May-2017,1,24,stim.wav,1,11,1926,-2.2771587387890255,1,1.6219207934001911
4,19-May-2017,1,24,stim.wav,1,12,2226,-0.3858347985819426,1,1.6219207934001911
4,19-May-2017,1,24,stim.wav,1,13,2560,-3.854727607593829,1,1.6219207934001911
4,19-May-2017,1,24,stim.wav,1,14,2932,-1.0445609426958888,1,1.6219207934001911
4,19-May-2017,1,24,stim.wav,1,15,3346,-6.539448632481658,1,1.6219207934001911
4,19-May-2017,1,24,stim.wav,1,16,3808,6.125735123080381,1,1.6219207934001911
4,19-May-2017,1,24,stim.wav,1,17,4322,-2.694053575988638,1,1.6219207934001911
4,19-May-2017,1,24,stim.wav,1,18,4895,-3.939436069153973,1,1.6219207934001911
4,19-May-2017,1,24,stim.wav,1,19,5534,0.5209124620816998,1,1.6219207934001911
4,19-May-2017,1,24,stim.wav,1,20,6245,6.424905899123524,1,1.6219207934001911
4,19-May-2017,1,24,stim.wav,1,21,7037,4.0376493606498025,1,1.6219207934001911
4,19-May-2017,1,24,stim.wav,1,22,7920,-6.784952745105221,1,1.6219207934001911
4,19-May-2017,1,24,stim.wav,1,23,8904,3.224696484514578,1,1.6219207934001911
4,19-May-2017,1,24,stim.wav,1,24,10000,-0.7302380823095818,1,1.6219207934001911
4,19-May-2017,1,25,stim.wav,0,0,100,5.514612278309179,1,1.7647417224433524
4,19-May-2017,1,25,stim.wav,0,1,191,-5.665964279980499,1,1.7647417224433524
4,19-May-2017,1,25,stim.wav,0,2,293,0.47922572800076313,1,1.7647417224433524
4,19-May-2017,1,25,stim.wav,0,3,406,-5.805423290322469,1,1.7647417224433524
4,19-May-2017,1,25,stim.wav,0,4,533,0.2267060534096403,1,1.7647417224433524
4,19-May-2017,1,25,stim.wav,0,5,673,2.3261580872873666,1,1.7647417224433524
4,19-May-2017,1,25,stim.wav,0,6,830,5.850960290834043,1,1.7647417224433524
4,19-May-2017,1,25,stim.wav,0,7,1004,0.6873646605612835,1,1.7647417224433524
4,19-May-2017,1,25,stim.wav,0,8,1199,7.386144327083816,1,1.7647417224433524
4,19-May-2017,1,25,stim.wav,0,9,1416,2.6844526547221754,1,1.7647417224433524
4,19-May-2017,1,25,stim.wav,0,10,1657,2.777150437528149,1,1.7647417224433524
4,19-May-2017,1,25,stim.wav,0,11,1926,-0.16789397546052812,1,1.7647417224433524
4,19-May-2017,1,25,stim.wav,0,12,2226,-1.1714752079503241,1,1.7647417224433524
4,19-May-2017,1,25,stim.wav,0,13,2560,0.2866430679803852,1,1.7647417224433524
4,19-May-2017,1,25,stim.wav,0,14,2932,-0.5480821056793586,1,1.7647417224433524
4,19-May-2017,1,25,stim.wav,0,15,3346,-7.80810384609228,1,1.7647417224433524
4,19-May-2017,1,25,stim.wav,0,16,3808,-7.945688954398646,1,1.7647417224433524
4,19-May-2017,1,25,stim.wav,0,17,4322,5.859405148605015,1,1.7647417224433524
4,19-May-2017,1,25,stim.wav,0,18,4895,-3.853340759022892,1,1.7647417224433524
4,19-May-2017,1,25,stim.wav,0,19,5534,-3.588638170562957,1,1.7647417224433524
4,19-May-2017,1,25,stim.wav,0,20,6245,-0.592115437583935,1,1.7647417224433524
4,19-May-2017,1,25,stim.wav,0,21,7037,-5.662656739620926,1,1.7647417224433524
4,19-May-2017,1,25,stim.wav,0,22,7920,-5.254808509392807,1,1.7647417224433524
4,19-May-2017,1,25,stim.wav,0,23,8904,3.8287630757639874,1,1.7647417224433524
4,19-May-2017,1,25,stim.wav,0,24,10000,2.929562753633351,1,1.7647417224433524
4,19-May-2017,1,25,stim.wav,1,0,100,-6.686763698889422,0,1.7647417224433524
4,19-May-2017,1,25,stim.wav,1,1,191,-0.013461182298943313,0,1.7647417224433524
4,19-May-2017,1,25,stim.wav,1,2,293,-4.292771278607398,0,1.7647417224433524
4,19-May-2017,1,25,stim.wav,1,3,406,-0.9143215854254462,0,1.7647417224433524
4,19-May-2017,1,25,stim.wav,1,4,533,-3.9443963192453877,0,1.7647417224433524
4,19-May-2017,1,25,stim.wav,1,5,673,2.7725214171046324,0,1.7647417224433524
4,19-May-2017,1,25,stim.wav,1,6,830,7.698768004095471,0,1.7647417224433524
4,19-May-2017,1,25,stim.wav,1,7,1004,5.1654991188091035,0,1.7647417224433524
4,19-May-2017,1,25,stim.wav,1,8,1199,-6.468229235145961,0,1.7647417224433524
4,19-May-2017,1,25,stim.wav,1,9,1416,1.2184866830834986,0,1.7647417224433524
4,19-May-2017,1,25,stim.wav,1,10,1657,-2.317789863625138,0,1.7647417224433524
4,19-May-2017,1,25,stim.wav,1,11,1926,2.75248500951073,0,1.7647417224433524
4,19-May-2017,1,25,stim.wav,1,12,2226,-2.937349435701159,0,1.7647417224433524
4,19-May-2017,1,25,stim.wav,1,13,2560,2.057604522990192,0,1.7647417224433524
4,19-May-2017,1,25,stim.wav,1,14,2932,5.581296853433091,0,1.7647417224433524
4,19-May-2017,1,25,stim.wav,1,15,3346,-6.805361382109845,0,1.7647417224433524
4,19-May-2017,1,25,stim.wav,1,16,3808,9.971354199483889,0,1.7647417224433524
4,19-May-2017,1,25,stim.wav,1,17,4322,0.09898822766259172,0,1.7647417224433524
4,19-May-2017,1,25,stim.wav,1,18,4895,-0.4525772198909775,0,1.7647417224433524
4,19-May-2017,1,25,stim.wav,1,19,5534,-2.372340516246498,0,1.7647417224433524
4,19-May-2017,1,25,stim.wav,1,20,6245,3.1104148882753986,0,1.7647417224433524
4,19-May-2017,1,25,stim.wav,1,21,7037,-4.010492320231503,0,1.7647417224433524
4,19-May-2017,1,25,stim.wav,1,22,7920,-3.8458148333273208,0,1.7647417224433524
4,19-May-2017,1,25,stim.wav,1,23,8904,-2.8363304538623044,0,1.7647417224433524
4,19-May-2017,1,25,stim.wav,1,24,10000,-0.30214288948973417,0,1.7647417224433524
4,19-May-2017,1,26,stim.wav,0,0,100,-0.907789998927673,0,1.1716056330318856
4,19-May-2017,1,26,stim.wav,0,1,191,1.8732072981934509,0,1.1716056330318856
4,19-May-2017,1,26,stim.wav,0,2,293,-1.4167012359284823,0,1.1716056330318856
4,19-May-2017,1,26,stim.wav,0,3,406,-0.371228560656629,0,1.1716056330318856
4,19-May-2017,1,26,stim.wav,0,4,533,-7.7956227076283655,0,1.1716056330318856
4,19-May-2017,1,26,stim.wav,0,5,673,4.409228352212603,0,1.1716056330318856
4,19-May-2017,1,26,stim.wav,0,6,830,-1.946832394081412,0,1.1716056330318856
4,19-May-2017,1,26,stim.wav,0,7,1004,0.5422453675426069,0,1.1716056330318856
4,19-May-2017,1,26,stim.wav,0,8,1199,-1.6264463453200548,0,1.1716056330318856
4,19-May-2017,1,26,stim.wav,0,9,1416,6.276315115171046,0,1.1716056330318856
4,19-May-2017,1,26,stim.wav,0,10,1657,-6.425742786639975,0,1.1716056330318856
4,19-May-2017,1,26,stim.wav,0,11,1926,7.411028074194777,0,1.1716056330318856
4,19-May-2017,1,26,stim.wav,0,12,2226,3.398271870689766,0,1.1716056330318856
4,19-May-2017,1,26,stim.wav,0,13,2560,3.671485820570142,0,1.1716056330318856
4,19-May-2017,1,26,stim.wav,0,14,2932,7.3570807303123775,0,1.1716056330318856
4,19-May-2017,1,26,stim.wav,0,15,3346,-0.12338585471073896,0,1.1716056330318856
4,19-May-2017,1,26,stim.wav,0,16,3808,4.470209558244074,0,1.1716056330318856
4,19-May-2017,1,26,stim.wav,0,17,4322,5.728092352626514,0,1.1716056330318856
4,19-May-2017,1,26,stim.wav,0,18,4895,-0.16090836985510268,0,1.1716056330318856
4,19-May-2017,1,26,stim.wav,0,19,5534,-8.657470088696256,0,1.1716056330318856
4,19-May-2017,1,26,stim.wav,0,20,6245,4.2154386998814815,0,1.1716056330318856
4,19-May-2017,1,26,stim.wav,0,21,7037,8.536403395777537,0,1.1716056330318856
4,19-May-2017,1,26,stim.wav,0,22,7920,-2.4170071173861203,0,1.1716056330318856
4,19-May-2017,1,26,stim.wav,0,23,8904,1.5339968309211987,0,1.1716056330318856
4,19-May-2017,1,26,stim.wav,0,24,10000,1.9750960355032805,0,1.1716056330318856
4,19-May-2017,1,26,stim.wav,1,0,100,-2.2607273033033115,1,1.1716056330318856
4,19-May-2017,1,26,stim.wav,1,1,191,3.769277967292232,1,1.1716056330318856
4,19-May-2017,1,26,stim.wav,1,2,293,-6.322823117972149,1,1.1716056330318856
4,19-May-2017,1,26,stim.wav,1,3,406,0.09676360116361678,1,1.1716056330318856
4,19-May-2017,1,26,stim.wav,1,4,533,-7.344045701160251,1,1.1716056330318856
4,19-May-2017,1,26,stim.wav,1,5,673,10.309154476432703,1,1.1716056330318856
4,19-May-2017,1,26,stim.wav,1,6,830,2.3989689163446433,1,1.1716056330318856
4,19-May-2017,1,26,stim.wav,1,7,1004,7.689503702736995,1,1.1716056330318856
4,19-May-2017,1,26,stim.wav,1,8,1199,-4.936066119521138,1,1.1716056330318856
4,19-May-2017,1,26,stim.wav,1,9,1416,1.986582080031327,1,1.1716056330318856
4,19-May-2017,1,26,stim.wav,1,10,1657,2.2407184310648134,1,1.1716056330318856
4,19-May-2017,1,26,stim.wav,1,11,1926,-2.054291385094151,1,1.1716056330318856
4,19-May-2017,1,26,stim.wav,1,12,2226,1.246562824080679,1,1.1716056330318856
4,19-May-2017,1,26,stim.wav,1,13,2560,-9.067665973611618,1,1.1716056330318856
4,19-May-2017,1,26,stim.wav,1,14,2932,9.360640817532834,1,1.1716056330318856
4,19-May-2017,1,26,stim.wav,1,15,3346,0.64474104950207,1,1.1716056330318856
4,19-May-2017,1,26,stim.wav,1,16,3808,-5.644941450044389,1,1.1716056330318856
4,19-May-2017,1,26,stim.wav,1,17,4322,-1.1956422327235054,1,1.1716056330318856
4,19-May-2017,1,26,stim.wav,1,18,4895,0.46587753841056967,1,1.1716056330318856
4,19-May-2017,1,26,stim.wav,1,19,5534,-2.143429002161812,1,1.1716056330318856
4,19-May-2017,1,26,stim.wav,1,20,6245,3.958242375664445,1,1.1716056330318856
4,19-May-2017,1,26,stim.wav,1,21,7037,5.4082984900350315,1,1.1716056330318856
4,19-May-2017,1,26,stim.wav,1,22,7920,-6.436944544642683,1,1.1716056330318856
4,19-May-2017,1,26,stim.wav,1,23,8904,0.19051974646892278,1,1.1716056330318856
4,19-May-2017,1,26,stim.wav,1,24,10000,0.03393042089880511,1,1.1716056330318856
4,19-May-2017,1,27,stim.wav,0,0,100,-6.724885569772352,1,0.7397126011121697
4,19-May-2017,1,27,stim.wav,0,1,191,-0.3000204665785167,1,0.7397126011121697
4,19-May-2017,1,27,stim.wav,0,2,293,2.581435559871192,1,0.7397126011121697
