subj,date,session,trial,stim,stim_order,filter,filter_freq,filter_gain,response,rt
2,19-May-2017,1,1,stim.wav,0,0,100,0.8416398734066253,1,5.061971643070102
2,19-May-2017,1,1,stim.wav,0,1,191,-1.3794207290605955,1,5.061971643070102
2,19-May-2017,1,1,stim.wav,0,2,293,6.967059665888615,1,5.061971643070102
2,19-May-2017,1,1,stim.wav,0,3,406,8.503155991294955,1,5.061971643070102
2,19-May-2017,1,1,stim.wav,0,4,533,-1.436489598559404,1,5.061971643070102
2,19-May-2017,1,1,stim.wav,0,5,673,-2.3036769068653458,1,5.061971643070102
2,19-May-2017,1,1,stim.wav,0,6,830,-6.5471811407392515,1,5.061971643070102
2,19-May-2017,1,1,stim.wav,0,7,1004,2.5709313400449525,1,5.061971643070102
2,19-May-2017,1,1,stim.wav,0,8,1199,-2.8781914257775973,1,5.061971643070102
2,19-May-2017,1,1,stim.wav,0,9,1416,-3.2664031910113724,1,5.061971643070102
2,19-May-2017,1,1,stim.wav,0,10,1657,2.308778119245751,1,5.061971643070102
2,19-May-2017,1,1,stim.wav,0,11,1926,-2.8987734353396037,1,5.061971643070102
2,19-May-2017,1,1,stim.wav,0,12,2226,4.8872362700753555,1,5.061971643070102
2,19-May-2017,1,1,stim.wav,0,13,2560,-7.34163291429088,1,5.061971643070102
2,19-May-2017,1,1,stim.wav,0,14,2932,-7.836831839450821,1,5.061971643070102
2,19-May-2017,1,1,stim.wav,0,15,3346,-6.9811292308835595,1,5.061971643070102
2,19-May-2017,1,1,stim.wav,0,16,3808,0.7289116639422062,1,5.061971643070102
2,19-May-2017,1,1,stim.wav,0,17,4322,2.1188022541151894,1,5.061971643070102
2,19-May-2017,1,1,stim.wav,0,18,4895,2.3123152269136917,1,5.061971643070102
2,19-May-2017,1,1,stim.wav,0,19,5534,4.076489579508042,1,5.061971643070102
2,19-May-2017,1,1,stim.wav,0,20,6245,4.240805812297922,1,5.061971643070102
2,19-May-2017,1,1,stim.wav,0,21,7037,7.783625531643815,1,5.061971643070102
2,19-May-2017,1,1,stim.wav,0,22,7920,1.3232217084296845,1,5.061971643070102
2,19-May-2017,1,1,stim.wav,0,23,8904,-1.075731757499395,1,5.061971643070102
2,19-May-2017,1,1,stim.wav,0,24,10000,-2.4876775229581742,1,5.061971643070102
2,19-May-2017,1,1,stim.wav,1,0,100,6.439973776398845,0,5.061971643070102
2,19-May-2017,1,1,stim.wav,1,1,191,6.483387968885564,0,5.061971643070102
2,19-May-2017,1,1,stim.wav,1,2,293,8.411312515243486,0,5.061971643070102
2,19-May-2017,1,1,stim.wav,1,3,406,-3.9745832651531083,0,5.061971643070102
2,19-May-2017,1,1,stim.wav,1,4,533,10.665230194034255,0,5.061971643070102
2,19-May-2017,1,1,stim.wav,1,5,673,1.1947018348368572,0,5.061971643070102
2,19-May-2017,1,1,stim.wav,1,6,830,-3.48365598787838,0,5.061971643070102
2,19-May-2017,1,1,stim.wav,1,7,1004,1.6419592079492769,0,5.061971643070102
2,19-May-2017,1,1,stim.wav,1,8,1199,7.951159747218137,0,5.061971643070102
2,19-May-2017,1,1,stim.wav,1,9,1416,-11.69185625170116,0,5.061971643070102
2,19-May-2017,1,1,stim.wav,1,10,1657,-0.0056432152617756385,0,5.061971643070102
2,19-May-2017,1,1,stim.wav,1,11,1926,0.2991097625155697,0,5.061971643070102
2,19-May-2017,1,1,stim.wav,1,12,2226,-6.740791452946002,0,5.061971643070102
2,19-May-2017,1,1,stim.wav,1,13,2560,-4.959177114133438,0,5.061971643070102
2,19-May-2017,1,1,stim.wav,1,14,2932,7.328715332472329,0,5.061971643070102
2,19-May-2017,1,1,stim.wav,1,15,3346,-1.2543863841469451,0,5.061971643070102
2,19-May-2017,1,1,stim.wav,1,16,3808,1.8056180634578831,0,5.061971643070102
2,19-May-2017,1,1,stim.wav,1,17,4322,2.5051122674594053,0,5.061971643070102
2,19-May-2017,1,1,stim.wav,1,18,4895,4.384619634153289,0,5.061971643070102
2,19-May-2017,1,1,stim.wav,1,19,5534,-11.633551907990496,0,5.061971643070102
2,19-May-2017,1,1,stim.wav,1,20,6245,-8.75309529796691,0,5.061971643070102
2,19-May-2017,1,1,stim.wav,1,21,7037,0.5373308887452528,0,5.061971643070102
2,19-May-2017,1,1,stim.wav,1,22,7920,3.804427531290335,0,5.061971643070102
2,19-May-2017,1,1,stim.wav,1,23,8904,0.4492378409167438,0,5.061971643070102
2,19-May-2017,1,1,stim.wav,1,24,10000,-0.8016869915556926,0,5.061971643070102
2,19-May-2017,1,2,stim.wav,0,0,100,4.884745350425954,1,2.7500717561351924
2,19-May-2017,1,2,stim.wav,0,1,191,-2.071687899339138,1,2.7500717561351924
2,19-May-2017,1,2,stim.wav,0,2,293,0.7465173612047428,1,2.7500717561351924
2,19-May-2017,1,2,stim.wav,0,3,406,1.7372383263510984,1,2.7500717561351924
2,19-May-2017,1,2,stim.wav,0,4,533,-2.8782088996256414,1,2.7500717561351924
2,19-May-2017,1,2,stim.wav,0,5,673,-3.452189366359349,1,2.7500717561351924
2,19-May-2017,1,2,stim.wav,0,6,830,0.4880451043964271,1,2.7500717561351924
2,19-May-2017,1,2,stim.wav,0,7,1004,-1.75056913792886,1,2.7500717561351924
2,19-May-2017,1,2,stim.wav,0,8,1199,5.294014329890381,1,2.7500717561351924
2,19-May-2017,1,2,stim.wav,0,9,1416,-4.592636950713198,1,2.7500717561351924
2,19-May-2017,1,2,stim.wav,0,10,1657,-0.07409486196725686,1,2.7500717561351924
2,19-May-2017,1,2,stim.wav,0,11,1926,-1.9030465610931404,1,2.7500717561351924
2,19-May-2017,1,2,stim.wav,0,12,2226,3.5191300365062106,1,2.7500717561351924
2,19-May-2017,1,2,stim.wav,0,13,2560,4.111230031931416,1,2.7500717561351924
2,19-May-2017,1,2,stim.wav,0,14,2932,-5.489364617475754,1,2.7500717561351924
2,19-May-2017,1,2,stim.wav,0,15,3346,6.5183536529102195,1,2.7500717561351924
2,19-May-2017,1,2,stim.wav,0,16,3808,8.062353938120951,1,2.7500717561351924
2,19-May-2017,1,2,stim.wav,0,17,4322,1.6967373571953337,1,2.7500717561351924
2,19-May-2017,1,2,stim.wav,0,18,4895,2.6776959935611,1,2.7500717561351924
2,19-May-2017,1,2,stim.wav,0,19,5534,5.194591089456715,1,2.7500717561351924
2,19-May-2017,1,2,stim.wav,0,20,6245,3.7572706295786906,1,2.7500717561351924
2,19-May-2017,1,2,stim.wav,0,21,7037,-1.3916617498685961,1,2.7500717561351924
2,19-May-2017,1,2,stim.wav,0,22,7920,-9.612118571054237,1,2.7500717561351924
2,19-May-2017,1,2,stim.wav,0,23,8904,-3.036320429121706,1,2.7500717561351924
2,19-May-2017,1,2,stim.wav,0,24,10000,-4.228807344295632,1,2.7500717561351924
2,19-May-2017,1,2,stim.wav,1,0,100,2.818447125935164,0,2.7500717561351924
2,19-May-2017,1,2,stim.wav,1,1,191,1.3233340134060645,0,2.7500717561351924
2,19-May-2017,1,2,stim.wav,1,2,293,5.162935928803897,0,2.7500717561351924
2,19-May-2017,1,2,stim.wav,1,3,406,6.327727436144092,0,2.7500717561351924
2,19-May-2017,1,2,stim.wav,1,4,533,-3.4847787342189225,0,2.7500717561351924
2,19-May-2017,1,2,stim.wav,1,5,673,0.9279901466160743,0,2.7500717561351924
2,19-May-2017,1,2,stim.wav,1,6,830,0.15618752146363363,0,2.7500717561351924
2,19-May-2017,1,2,stim.wav,1,7,1004,3.4379393585781477,0,2.7500717561351924
2,19-May-2017,1,2,stim.wav,1,8,1199,-0.31835561859933714,0,2.7500717561351924
2,19-May-2017,1,2,stim.wav,1,9,1416,2.0815111970358915,0,2.7500717561351924
2,19-May-2017,1,2,stim.wav,1,10,1657,-6.299870019305581,0,2.7500717561351924
2,19-May-2017,1,2,stim.wav,1,11,1926,-2.4823655161133837,0,2.7500717561351924
2,19-May-2017,1,2,stim.wav,1,12,2226,-3.717099920837328,0,2.7500717561351924
2,19-May-2017,1,2,stim.wav,1,13,2560,-3.0308000008830045,0,2.7500717561351924
2,19-May-2017,1,2,stim.wav,1,14,2932,6.896407967103215,0,2.7500717561351924
2,19-May-2017,1,2,stim.wav,1,15,3346,-3.608130185830621,0,2.7500717561351924
2,19-May-2017,1,2,stim.wav,1,16,3808,6.892345462321334,0,2.7500717561351924
2,19-May-2017,1,2,stim.wav,1,17,4322,-1.1209646480281532,0,2.7500717561351924
2,19-May-2017,1,2,stim.wav,1,18,4895,1.7780101952756031,0,2.7500717561351924
2,19-May-2017,1,2,stim.wav,1,19,5534,-1.1397397000075764,0,2.7500717561351924
2,19-May-2017,1,2,stim.wav,1,20,6245,-2.9369438439924442,0,2.7500717561351924
2,19-May-2017,1,2,stim.wav,1,21,7037,-4.482446481876732,0,2.7500717561351924
2,19-May-2017,1,2,stim.wav,1,22,7920,-6.060416380392624,0,2.7500717561351924
2,19-May-2017,1,2,stim.wav,1,23,8904,-1.8623491389522362,0,2.7500717561351924
2,19-May-2017,1,2,stim.wav,1,24,10000,5.205873500704442,0,2.7500717561351924
2,19-May-2017,1,3,stim.wav,0,0,100,7.535781521164891,0,1.8917989322960767
2,19-May-2017,1,3,stim.wav,0,1,191,-0.034695727673783074,0,1.8917989322960767
2,19-May-2017,1,3,stim.wav,0,2,293,-6.275089807627089,0,1.8917989322960767
2,19-May-2017,1,3,stim.wav,0,3,406,-5.990697821916976,0,1.8917989322960767
2,19-May-2017,1,3,stim.wav,0,4,533,5.762304686840184,0,1.8917989322960767
2,19-May-2017,1,3,stim.wav,0,5,673,-3.6393457978985175,0,1.8917989322960767
2,19-May-2017,1,3,stim.wav,0,6,830,-5.2280517341581305,0,1.8917989322960767
2,19-May-2017,1,3,stim.wav,0,7,1004,6.951857457702133,0,1.8917989322960767
2,19-May-2017,1,3,stim.wav,0,8,1199,1.3055339180242047,0,1.8917989322960767
2,19-May-2017,1,3,stim.wav,0,9,1416,2.5181420800174514,0,1.8917989322960767
2,19-May-2017,1,3,stim.wav,0,10,1657,5.262656360383414,0,1.8917989322960767
2,19-May-2017,1,3,stim.wav,0,11,1926,-0.892417157784138,0,1.8917989322960767
2,19-May-2017,1,3,stim.wav,0,12,2226,-0.40478794541573004,0,1.8917989322960767
2,19-May-2017,1,3,stim.wav,0,13,2560,5.090604831859043,0,1.8917989322960767
2,19-May-2017,1,3,stim.wav,0,14,2932,11.012555680742999,0,1.8917989322960767
2,19-May-2017,1,3,stim.wav,0,15,3346,0.7493571474750278,0,1.8917989322960767
2,19-May-2017,1,3,stim.wav,0,16,3808,2.391756190426801,0,1.8917989322960767
2,19-May-2017,1,3,stim.wav,0,17,4322,-4.8754434900029535,0,1.8917989322960767
2,19-May-2017,1,3,stim.wav,0,18,4895,5.9935775672279,0,1.8917989322960767
2,19-May-2017,1,3,stim.wav,0,19,5534,2.2614498405709913,0,1.8917989322960767
2,19-May-2017,1,3,stim.wav,0,20,6245,1.3186354778163143,0,1.8917989322960767
2,19-May-2017,1,3,stim.wav,0,21,7037,2.6133374582838416,0,1.8917989322960767
2,19-May-2017,1,3,stim.wav,0,22,7920,-8.795793496514992,0,1.8917989322960767
2,19-May-2017,1,3,stim.wav,0,23,8904,2.131387003763872,0,1.8917989322960767
2,19-May-2017,1,3,stim.wav,0,24,10000,-3.4502130366782624,0,1.8917989322960767
2,19-May-2017,1,3,stim.wav,1,0,100,-2.2007375477879125,1,1.8917989322960767
2,19-May-2017,1,3,stim.wav,1,1,191,4.912195102417552,1,1.8917989322960767
2,19-May-2017,1,3,stim.wav,1,2,293,-2.507107476183752,1,1.8917989322960767
2,19-May-2017,1,3,stim.wav,1,3,406,0.8807534708580671,1,1.8917989322960767
2,19-May-2017,1,3,stim.wav,1,4,533,0.45659191357437284,1,1.8917989322960767
2,19-May-2017,1,3,stim.wav,1,5,673,-8.11626087686166,1,1.8917989322960767
2,19-May-2017,1,3,stim.wav,1,6,830,0.8949933009888755,1,1.8917989322960767
2,19-May-2017,1,3,stim.wav,1,7,1004,2.983232585276554,1,1.8917989322960767
2,19-May-2017,1,3,stim.wav,1,8,1199,-3.6592287691961465,1,1.8917989322960767
2,19-May-2017,1,3,stim.wav,1,9,1416,0.0002442276988272514,1,1.8917989322960767
2,19-May-2017,1,3,stim.wav,1,10,1657,-3.2294125474601056,1,1.8917989322960767
2,19-May-2017,1,3,stim.wav,1,11,1926,9.90486081594604,1,1.8917989322960767
2,19-May-2017,1,3,stim.wav,1,12,2226,-0.2777296205442336,1,1.8917989322960767
2,19-May-2017,1,3,stim.wav,1,13,2560,0.06529191518247937,1,1.8917989322960767
2,19-May-2017,1,3,stim.wav,1,14,2932,-8.040422238711336,1,1.8917989322960767
2,19-May-2017,1,3,stim.wav,1,15,3346,-4.517967988670101,1,1.8917989322960767
2,19-May-2017,1,3,stim.wav,1,16,3808,-1.7723490242310462,1,1.8917989322960767
2,19-May-2017,1,3,stim.wav,1,17,4322,2.3610294981494913,1,1.8917989322960767
2,19-May-2017,1,3,stim.wav,1,18,4895,-2.148637066882191,1,1.8917989322960767
2,19-May-2017,1,3,stim.wav,1,19,5534,-2.3769076948043373,1,1.8917989322960767
2,19-May-2017,1,3,stim.wav,1,20,6245,-5.372743200668307,1,1.8917989322960767
2,19-May-2017,1,3,stim.wav,1,21,7037,8.152983051767327,1,1.8917989322960767
2,19-May-2017,1,3,stim.wav,1,22,7920,-1.0012745921055337,1,1.8917989322960767
2,19-May-2017,1,3,stim.wav,1,23,8904,3.4674751713194185,1,1.8917989322960767
2,19-May-2017,1,3,stim.wav,1,24,10000,8.579559316394027,1,1.8917989322960767
2,19-May-2017,1,4,stim.wav,0,0,100,4.720359806219784,0,1.8084027375093865
2,19-May-2017,1,4,stim.wav,0,1,191,2.000401753731888,0,1.8084027375093865
2,19-May-2017,1,4,stim.wav,0,2,293,2.7397711735230863,0,1.8084027375093865
2,19-May-2017,1,4,stim.wav,0,3,406,0.29380213356579943,0,1.8084027375093865
2,19-May-2017,1,4,stim.wav,0,4,533,-1.2389042996727648,0,1.8084027375093865
2,19-May-2017,1,4,stim.wav,0,5,673,2.872055305743317,0,1.8084027375093865
2,19-May-2017,1,4,stim.wav,0,6,830,-2.436033009235518,0,1.8084027375093865
2,19-May-2017,1,4,stim.wav,0,7,1004,3.624154767734831,0,1.8084027375093865
2,19-May-2017,1,4,stim.wav,0,8,1199,-4.369443460628145,0,1.8084027375093865
2,19-May-2017,1,4,stim.wav,0,9,1416,3.419770847003492,0,1.8084027375093865
2,19-May-2017,1,4,stim.wav,0,10,1657,4.377477486160649,0,1.8084027375093865
2,19-May-2017,1,4,stim.wav,0,11,1926,-4.271813462026719,0,1.8084027375093865
2,19-May-2017,1,4,stim.wav,0,12,2226,-11.1714347277055,0,1.8084027375093865
2,19-May-2017,1,4,stim.wav,0,13,2560,-4.275476280126788,0,1.8084027375093865
2,19-May-2017,1,4,stim.wav,0,14,2932,-5.762233285317659,0,1.8084027375093865
2,19-May-2017,1,4,stim.wav,0,15,3346,-8.727130156844835,0,1.8084027375093865
2,19-May-2017,1,4,stim.wav,0,16,3808,2.441519325145392,0,1.8084027375093865
2,19-May-2017,1,4,stim.wav,0,17,4322,-1.7637323869790098,0,1.8084027375093865
2,19-May-2017,1,4,stim.wav,0,18,4895,0.7784459386243929,0,1.8084027375093865
2,19-May-2017,1,4,stim.wav,0,19,5534,-3.4026216075638738,0,1.8084027375093865
2,19-May-2017,1,4,stim.wav,0,20,6245,-6.361349428913074,0,1.8084027375093865
2,19-May-2017,1,4,stim.wav,0,21,7037,1.3575294052392364,0,1.8084027375093865
2,19-May-2017,1,4,stim.wav,0,22,7920,-4.842333500335919,0,1.8084027375093865
2,19-May-2017,1,4,stim.wav,0,23,8904,3.7329323209113134,0,1.8084027375093865
2,19-May-2017,1,4,stim.wav,0,24,10000,-4.386652337065707,0,1.8084027375093865
2,19-May-2017,1,4,stim.wav,1,0,100,5.26093230156008,1,1.8084027375093865
2,19-May-2017,1,4,stim.wav,1,1,191,3.7192268530791623,1,1.8084027375093865
2,19-May-2017,1,4,stim.wav,1,2,293,2.742153975631995,1,1.8084027375093865
2,19-May-2017,1,4,stim.wav,1,3,406,0.2698945364260604,1,1.8084027375093865
2,19-May-2017,1,4,stim.wav,1,4,533,8.341958004860167,1,1.8084027375093865
2,19-May-2017,1,4,stim.wav,1,5,673,5.507213440324321,1,1.8084027375093865
2,19-May-2017,1,4,stim.wav,1,6,830,-6.318040801323047,1,1.8084027375093865
2,19-May-2017,1,4,stim.wav,1,7,1004,2.935831670494487,1,1.8084027375093865
2,19-May-2017,1,4,stim.wav,1,8,1199,-1.552427552877531,1,1.8084027375093865
2,19-May-2017,1,4,stim.wav,1,9,1416,-3.0743511063328492,1,1.8084027375093865
2,19-May-2017,1,4,stim.wav,1,10,1657,6.666456995642918,1,1.8084027375093865
2,19-May-2017,1,4,stim.wav,1,11,1926,-3.488893063846062,1,1.8084027375093865
2,19-May-2017,1,4,stim.wav,1,12,2226,9.340050921846654,1,1.8084027375093865
2,19-May-2017,1,4,stim.wav,1,13,2560,-1.2131928096609517,1,1.8084027375093865
2,19-May-2017,1,4,stim.wav,1,14,2932,-2.7820964614280603,1,1.8084027375093865
2,19-May-2017,1,4,stim.wav,1,15,3346,-3.4315014349821515,1,1.8084027375093865
2,19-May-2017,1,4,stim.wav,1,16,3808,2.5817753078956844,1,1.8084027375093865
2,19-May-2017,1,4,stim.wav,1,17,4322,-5.657555822167749,1,1.8084027375093865
2,19-May-2017,1,4,stim.wav,1,18,4895,3.684467325968207,1,1.8084027375093865
2,19-May-2017,1,4,stim.wav,1,19,5534,-4.694575179395692,1,1.8084027375093865
2,19-May-2017,1,4,stim.wav,1,20,6245,5.0517136650880285,1,1.8084027375093865
2,19-May-2017,1,4,stim.wav,1,21,7037,-8.074407997703222,1,1.8084027375093865
2,19-May-2017,1,4,stim.wav,1,22,7920,-4.287107123119555,1,1.8084027375093865
2,19-May-2017,1,4,stim.wav,1,23,8904,8.174586917560521,1,1.8084027375093865
2,19-May-2017,1,4,stim.wav,1,24,10000,-4.498442144432557,1,1.8084027375093865
2,19-May-2017,1,5,stim.wav,0,0,100,0.805697459612043,1,1.135397583725469
2,19-May-2017,1,5,stim.wav,0,1,191,4.097489204422616,1,1.135397583725469
2,19-May-2017,1,5,stim.wav,0,2,293,1.0740249112370428,1,1.135397583725469
2,19-May-2017,1,5,stim.wav,0,3,406,-7.365988804857658,1,1.135397583725469
2,19-May-2017,1,5,stim.wav,0,4,533,-7.348154869529891,1,1.135397583725469
2,19-May-2017,1,5,stim.wav,0,5,673,-2.1274696004823768,1,1.135397583725469
2,19-May-2017,1,5,stim.wav,0,6,830,-1.2132261491235012,1,1.135397583725469
2,19-May-2017,1,5,stim.wav,0,7,1004,0.16059383217269282,1,1.135397583725469
2,19-May-2017,1,5,stim.wav,0,8,1199,11.187541906415873,1,1.135397583725469
2,19-May-2017,1,5,stim.wav,0,9,1416,-3.6580026880093692,1,1.135397583725469
2,19-May-2017,1,5,stim.wav,0,10,1657,4.205199144090303,1,1.135397583725469
2,19-May-2017,1,5,stim.wav,0,11,1926,-12.097091524909855,1,1.135397583725469
2,19-May-2017,1,5,stim.wav,0,12,2226,7.797175857641037,1,1.135397583725469
2,19-May-2017,1,5,stim.wav,0,13,2560,-5.8646998626593785,1,1.135397583725469
2,19-May-2017,1,5,stim.wav,0,14,2932,-0.5047844745996652,1,1.135397583725469
2,19-May-2017,1,5,stim.wav,0,15,3346,-3.7448604096673463,1,1.135397583725469
2,19-May-2017,1,5,stim.wav,0,16,3808,1.9271417953037981,1,1.135397583725469
2,19-May-2017,1,5,stim.wav,0,17,4322,-1.3488880788945765,1,1.135397583725469
2,19-May-2017,1,5,stim.wav,0,18,4895,-1.9013027660784896,1,1.135397583725469
2,19-May-2017,1,5,stim.wav,0,19,5534,-1.6087492118142843,1,1.135397583725469
2,19-May-2017,1,5,stim.wav,0,20,6245,-5.486238904808944,1,1.135397583725469
2,19-May-2017,1,5,stim.wav,0,21,7037,-9.316260934423614,1,1.135397583725469
2,19-May-2017,1,5,stim.wav,0,22,7920,-0.11594688939664108,1,1.135397583725469
2,19-May-2017,1,5,stim.wav,0,23,8904,-1.3383537283464928,1,1.135397583725469
2,19-May-2017,1,5,stim.wav,0,24,10000,6.694203794937662,1,1.135397583725469
2,19-May-2017,1,5,stim.wav,1,0,100,-3.7454985811311348,0,1.135397583725469
2,19-May-2017,1,5,stim.wav,1,1,191,-3.1510523781424844,0,1.135397583725469
2,19-May-2017,1,5,stim.wav,1,2,293,9.790876796399203,0,1.135397583725469
2,19-May-2017,1,5,stim.wav,1,3,406,-5.784378741058498,0,1.135397583725469
2,19-May-2017,1,5,stim.wav,1,4,533,-5.06333434319168,0,1.135397583725469
2,19-May-2017,1,5,stim.wav,1,5,673,-2.287025409361675,0,1.135397583725469
2,19-May-2017,1,5,stim.wav,1,6,830,3.1340376973393136,0,1.135397583725469
2,19-May-2017,1,5,stim.wav,1,7,1004,10.591652105399092,0,1.135397583725469
2,19-May-2017,1,5,stim.wav,1,8,1199,-0.3188794493546259,0,1.135397583725469
2,19-May-2017,1,5,stim.wav,1,9,1416,-7.525208558307138,0,1.135397583725469
2,19-May-2017,1,5,stim.wav,1,10,1657,5.148290001823931,0,1.135397583725469
2,19-May-2017,1,5,stim.wav,1,11,1926,2.9773814436019874,0,1.135397583725469
2,19-May-2017,1,5,stim.wav,1,12,2226,-8.930023487257984,0,1.135397583725469
2,19-May-2017,1,5,stim.wav,1,13,2560,1.3840162646968046,0,1.135397583725469
2,19-May-2017,1,5,stim.wav,1,14,2932,-6.090975785206455,0,1.135397583725469
2,19-May-2017,1,5,stim.wav,1,15,3346,-0.2596681101662306,0,1.135397583725469
2,19-May-2017,1,5,stim.wav,1,16,3808,3.844343015894295,0,1.135397583725469
2,19-May-2017,1,5,stim.wav,1,17,4322,-2.4211303643360744,0,1.135397583725469
2,19-May-2017,1,5,stim.wav,1,18,4895,-0.16884756161034287,0,1.135397583725469
2,19-May-2017,1,5,stim.wav,1,19,5534,1.2219555256379842,0,1.135397583725469
2,19-May-2017,1,5,stim.wav,1,20,6245,3.100603025030711,0,1.135397583725469
2,19-May-2017,1,5,stim.wav,1,21,7037,3.2749972886147334,0,1.135397583725469
2,19-May-2017,1,5,stim.wav,1,22,7920,-3.0049419542497042,0,1.135397583725469
2,19-May-2017,1,5,stim.wav,1,23,8904,1.2111623505780817,0,1.135397583725469
2,19-May-2017,1,5,stim.wav,1,24,10000,-3.892520250403261,0,1.135397583725469
2,19-May-2017,1,6,stim.wav,0,0,100,3.7562185045019154,0,0.8718310557816287
2,19-May-2017,1,6,stim.wav,0,1,191,1.489615041119844,0,0.8718310557816287
2,19-May-2017,1,6,stim.wav,0,2,293,3.668408964497585,0,0.8718310557816287
2,19-May-2017,1,6,stim.wav,0,3,406,9.717371670257704,0,0.8718310557816287
2,19-May-2017,1,6,stim.wav,0,4,533,4.8683491320857115,0,0.8718310557816287
2,19-May-2017,1,6,stim.wav,0,5,673,-3.349115051995141,0,0.8718310557816287
2,19-May-2017,1,6,stim.wav,0,6,830,-1.4844939513682087,0,0.8718310557816287
2,19-May-2017,1,6,stim.wav,0,7,1004,0.6389359831761187,0,0.8718310557816287
2,19-May-2017,1,6,stim.wav,0,8,1199,0.31372993620736944,0,0.8718310557816287
2,19-May-2017,1,6,stim.wav,0,9,1416,7.931164644602413,0,0.8718310557816287
2,19-May-2017,1,6,stim.wav,0,10,1657,-1.7548246330305781,0,0.8718310557816287
2,19-May-2017,1,6,stim.wav,0,11,1926,-2.5350724639195006,0,0.8718310557816287
2,19-May-2017,1,6,stim.wav,0,12,2226,-1.0376013190350348,0,0.8718310557816287
2,19-May-2017,1,6,stim.wav,0,13,2560,3.473542136842822,0,0.8718310557816287
2,19-May-2017,1,6,stim.wav,0,14,2932,0.27662790137232013,0,0.8718310557816287
2,19-May-2017,1,6,stim.wav,0,15,3346,-0.3079762404156182,0,0.8718310557816287
2,19-May-2017,1,6,stim.wav,0,16,3808,-3.495286849845619,0,0.8718310557816287
2,19-May-2017,1,6,stim.wav,0,17,4322,-1.9657163908266553,0,0.8718310557816287
2,19-May-2017,1,6,stim.wav,0,18,4895,4.931967851047244,0,0.8718310557816287
2,19-May-2017,1,6,stim.wav,0,19,5534,-0.7741745411433756,0,0.8718310557816287
2,19-May-2017,1,6,stim.wav,0,20,6245,-4.432533739718173,0,0.8718310557816287
2,19-May-2017,1,6,stim.wav,0,21,7037,-6.701336245546312,0,0.8718310557816287
2,19-May-2017,1,6,stim.wav,0,22,7920,2.9898323341392175,0,0.8718310557816287
2,19-May-2017,1,6,stim.wav,0,23,8904,-1.8536156873550946,0,0.8718310557816287
2,19-May-2017,1,6,stim.wav,0,24,10000,-0.02349134446180304,0,0.8718310557816287
2,19-May-2017,1,6,stim.wav,1,0,100,-2.854412473864792,1,0.8718310557816287
2,19-May-2017,1,6,stim.wav,1,1,191,1.0762529367843852,1,0.8718310557816287
2,19-May-2017,1,6,stim.wav,1,2,293,-0.17456417469430402,1,0.8718310557816287
2,19-May-2017,1,6,stim.wav,1,3,406,-5.27385069289306,1,0.8718310557816287
2,19-May-2017,1,6,stim.wav,1,4,533,0.6300347333854351,1,0.8718310557816287
2,19-May-2017,1,6,stim.wav,1,5,673,0.09235722765790527,1,0.8718310557816287
2,19-May-2017,1,6,stim.wav,1,6,830,6.71793621244171,1,0.8718310557816287
2,19-May-2017,1,6,stim.wav,1,7,1004,10.347140367203014,1,0.8718310557816287
2,19-May-2017,1,6,stim.wav,1,8,1199,-0.09544476343465848,1,0.8718310557816287
2,19-May-2017,1,6,stim.wav,1,9,1416,3.467143135272817,1,0.8718310557816287
2,19-May-2017,1,6,stim.wav,1,10,1657,-0.4975879384426919,1,0.8718310557816287
2,19-May-2017,1,6,stim.wav,1,11,1926,5.1301769659703265,1,0.8718310557816287
2,19-May-2017,1,6,stim.wav,1,12,2226,2.238663257343153,1,0.8718310557816287
2,19-May-2017,1,6,stim.wav,1,13,2560,1.9577807095296849,1,0.8718310557816287
2,19-May-2017,1,6,stim.wav,1,14,2932,-4.12609365957998,1,0.8718310557816287
2,19-May-2017,1,6,stim.wav,1,15,3346,-2.8177148164230266,1,0.8718310557816287
2,19-May-2017,1,6,stim.wav,1,16,3808,-1.5588506733232899,1,0.8718310557816287
2,19-May-2017,1,6,stim.wav,1,17,4322,1.8472482656244198,1,0.8718310557816287
2,19-May-2017,1,6,stim.wav,1,18,4895,-1.7022195653266836,1,0.8718310557816287
2,19-May-2017,1,6,stim.wav,1,19,5534,-4.264340632259288,1,0.8718310557816287
2,19-May-2017,1,6,stim.wav,1,20,6245,-4.967900427658854,1,0.8718310557816287
2,19-May-2017,1,6,stim.wav,1,21,7037,-0.8081791968636581,1,0.8718310557816287
2,19-May-2017,1,6,stim.wav,1,22,7920,-1.1730416426439718,1,0.8718310557816287
2,19-May-2017,1,6,stim.wav,1,23,8904,-2.1764883125163945,1,0.8718310557816287
2,19-May-2017,1,6,stim.wav,1,24,10000,4.611478352984207,1,0.8718310557816287
2,19-May-2017,1,7,stim.wav,0,0,100,-2.074518739555365,0,1.0874826168838165
2,19-May-2017,1,7,stim.wav,0,1,191,9.940976600264623,0,1.0874826168838165
2,19-May-2017,1,7,stim.wav,0,2,293,9.852949169509461,0,1.0874826168838165
2,19-May-2017,1,7,stim.wav,0,3,406,-5.70842865208825,0,1.0874826168838165
2,19-May-2017,1,7,stim.wav,0,4,533,-8.023565818916218,0,1.0874826168838165
2,19-May-2017,1,7,stim.wav,0,5,673,3.7660849784026307,0,1.0874826168838165
2,19-May-2017,1,7,stim.wav,0,6,830,8.869067388279543,0,1.0874826168838165
2,19-May-2017,1,7,stim.wav,0,7,1004,6.778266501532606,0,1.0874826168838165
2,19-May-2017,1,7,stim.wav,0,8,1199,-4.639192156233232,0,1.0874826168838165
2,19-May-2017,1,7,stim.wav,0,9,1416,1.098033253335242,0,1.0874826168838165
2,19-May-2017,1,7,stim.wav,0,10,1657,2.847349309687601,0,1.0874826168838165
2,19-May-2017,1,7,stim.wav,0,11,1926,6.249395766218228,0,1.0874826168838165
2,19-May-2017,1,7,stim.wav,0,12,2226,-6.186147812472357,0,1.0874826168838165
2,19-May-2017,1,7,stim.wav,0,13,2560,0.35999259398279215,0,1.0874826168838165
2,19-May-2017,1,7,stim.wav,0,14,2932,-1.9974307906474544,0,1.0874826168838165
2,19-May-2017,1,7,stim.wav,0,15,3346,9.760357745390586,0,1.0874826168838165
2,19-May-2017,1,7,stim.wav,0,16,3808,4.883732625764441,0,1.0874826168838165
2,19-May-2017,1,7,stim.wav,0,17,4322,1.5750046941384404,0,1.0874826168838165
2,19-May-2017,1,7,stim.wav,0,18,4895,-9.71600671327806,0,1.0874826168838165
2,19-May-2017,1,7,stim.wav,0,19,5534,-7.7394397863820386,0,1.0874826168838165
2,19-May-2017,1,7,stim.wav,0,20,6245,-6.777214150802192,0,1.0874826168838165
2,19-May-2017,1,7,stim.wav,0,21,7037,7.530941742764055,0,1.0874826168838165
2,19-May-2017,1,7,stim.wav,0,22,7920,-10.512954452041338,0,1.0874826168838165
2,19-May-2017,1,7,stim.wav,0,23,8904,-4.292662334421436,0,1.0874826168838165
2,19-May-2017,1,7,stim.wav,0,24,10000,-1.5533110792422609,0,1.0874826168838165
2,19-May-2017,1,7,stim.wav,1,0,100,1.3374508460692605,1,1.0874826168838165
2,19-May-2017,1,7,stim.wav,1,1,191,5.677952568920413,1,1.0874826168838165
2,19-May-2017,1,7,stim.wav,1,2,293,0.7190420987308866,1,1.0874826168838165
2,19-May-2017,1,7,stim.wav,1,3,406,9.059909158130484,1,1.0874826168838165
2,19-May-2017,1,7,stim.wav,1,4,533,1.6424208628755932,1,1.0874826168838165
2,19-May-2017,1,7,stim.wav,1,5,673,0.7548546906944352,1,1.0874826168838165
2,19-May-2017,1,7,stim.wav,1,6,830,-3.176471781636428,1,1.0874826168838165
2,19-May-2017,1,7,stim.wav,1,7,1004,5.4414724930527045,1,1.0874826168838165
2,19-May-2017,1,7,stim.wav,1,8,1199,-6.280057824732834,1,1.0874826168838165
2,19-May-2017,1,7,stim.wav,1,9,1416,0.38071653367815367,1,1.0874826168838165
2,19-May-2017,1,7,stim.wav,1,10,1657,-0.3910369911140774,1,1.0874826168838165
2,19-May-2017,1,7,stim.wav,1,11,1926,-2.8677736509048337,1,1.0874826168838165
2,19-May-2017,1,7,stim.wav,1,12,2226,-4.99137051248518,1,1.0874826168838165
2,19-May-2017,1,7,stim.wav,1,13,2560,-2.5501519623870808,1,1.0874826168838165
2,19-May-2017,1,7,stim.wav,1,14,2932,0.38344709587325565,1,1.0874826168838165
2,19-May-2017,1,7,stim.wav,1,15,3346,-3.393677354994844,1,1.0874826168838165
2,19-May-2017,1,7,stim.wav,1,16,3808,-0.1476749788875794,1,1.0874826168838165
2,19-May-2017,1,7,stim.wav,1,17,4322,3.1531700885739755,1,1.0874826168838165
2,19-May-2017,1,7,stim.wav,1,18,4895,5.378859975278002,1,1.0874826168838165
2,19-May-2017,1,7,stim.wav,1,19,5534,-1.502886401431696,1,1.0874826168838165
2,19-May-2017,1,7,stim.wav,1,20,6245,5.178975238066896,1,1.0874826168838165
2,19-May-2017,1,7,stim.wav,1,21,7037,-5.11892104896913,1,1.0874826168838165
2,19-May-2017,1,7,stim.wav,1,22,7920,-3.081989872945462,1,1.0874826168838165
2,19-May-2017,1,7,stim.wav,1,23,8904,7.197839733782432,1,1.0874826168838165
2,19-May-2017,1,7,stim.wav,1,24,10000,-4.6307798336485835,1,1.0874826168838165
2,19-May-2017,1,8,stim.wav,0,0,100,-2.4017248958381487,1,0.6933315543969663
2,19-May-2017,1,8,stim.wav,0,1,191,-5.741688897089277,1,0.6933315543969663
2,19-May-2017,1,8,stim.wav,0,2,293,1.4483351534683937,1,0.6933315543969663
2,19-May-2017,1,8,stim.wav,0,3,406,0.26508262665029964,1,0.6933315543969663
2,19-May-2017,1,8,stim.wav,0,4,533,0.8935246000681146,1,0.6933315543969663
2,19-May-2017,1,8,stim.wav,0,5,673,11.330901526681314,1,0.6933315543969663
2,19-May-2017,1,8,stim.wav,0,6,830,-0.23474381206662842,1,0.6933315543969663
2,19-May-2017,1,8,stim.wav,0,7,1004,1.743319645235435,1,0.6933315543969663
2,19-May-2017,1,8,stim.wav,0,8,1199,-3.3378065172456264,1,0.6933315543969663
2,19-May-2017,1,8,stim.wav,0,9,1416,2.2729778111425047,1,0.6933315543969663
2,19-May-2017,1,8,stim.wav,0,10,1657,-2.549624728116813,1,0.6933315543969663
2,19-May-2017,1,8,stim.wav,0,11,1926,5.529338601190114,1,0.6933315543969663
2,19-May-2017,1,8,stim.wav,0,12,2226,4.182468464071784,1,0.6933315543969663
2,19-May-2017,1,8,stim.wav,0,13,2560,1.79625825212236,1,0.6933315543969663
2,19-May-2017,1,8,stim.wav,0,14,2932,-3.1968544294197265,1,0.6933315543969663
2,19-May-2017,1,8,stim.wav,0,15,3346,5.332333313528985,1,0.6933315543969663
2,19-May-2017,1,8,stim.wav,0,16,3808,-1.8310321383925932,1,0.6933315543969663
2,19-May-2017,1,8,stim.wav,0,17,4322,-0.6795864578048023,1,0.6933315543969663
2,19-May-2017,1,8,stim.wav,0,18,4895,0.9082016237340346,1,0.6933315543969663
2,19-May-2017,1,8,stim.wav,0,19,5534,-7.500934087234407,1,0.6933315543969663
2,19-May-2017,1,8,stim.wav,0,20,6245,-4.509262799773419,1,0.6933315543969663
2,19-May-2017,1,8,stim.wav,0,21,7037,-6.677282016764535,1,0.6933315543969663
2,19-May-2017,1,8,stim.wav,0,22,7920,-5.239220553356986,1,0.6933315543969663
2,19-May-2017,1,8,stim.wav,0,23,8904,-6.531460689456047,1,0.6933315543969663
2,19-May-2017,1,8,stim.wav,0,24,10000,-0.4991731943881659,1,0.6933315543969663
2,19-May-2017,1,8,stim.wav,1,0,100,4.853506476981374,0,0.6933315543969663
2,19-May-2017,1,8,stim.wav,1,1,191,2.7459124387052865,0,0.6933315543969663
2,19-May-2017,1,8,stim.wav,1,2,293,-2.307688384936185,0,0.6933315543969663
2,19-May-2017,1,8,stim.wav,1,3,406,-0.4317890220113268,0,0.6933315543969663
2,19-May-2017,1,8,stim.wav,1,4,533,3.2449179840135143,0,0.6933315543969663
2,19-May-2017,1,8,stim.wav,1,5,673,10.647660998665318,0,0.6933315543969663
2,19-May-2017,1,8,stim.wav,1,6,830,-2.6950337313969386,0,0.6933315543969663
2,19-May-2017,1,8,stim.wav,1,7,1004,7.03147377833384,0,0.6933315543969663
2,19-May-2017,1,8,stim.wav,1,8,1199,0.8484118109682872,0,0.6933315543969663
2,19-May-2017,1,8,stim.wav,1,9,1416,0.5171672259662808,0,0.6933315543969663
2,19-May-2017,1,8,stim.wav,1,10,1657,-0.7352706404979901,0,0.6933315543969663
2,19-May-2017,1,8,stim.wav,1,11,1926,9.96984476186416,0,0.6933315543969663
2,19-May-2017,1,8,stim.wav,1,12,2226,3.225321205125011,0,0.6933315543969663
2,19-May-2017,1,8,stim.wav,1,13,2560,-7.123386886273694,0,0.6933315543969663
2,19-May-2017,1,8,stim.wav,1,14,2932,2.129524786928173,0,0.6933315543969663
2,19-May-2017,1,8,stim.wav,1,15,3346,0.7562986349790894,0,0.6933315543969663
2,19-May-2017,1,8,stim.wav,1,16,3808,-1.1722608372058554,0,0.6933315543969663
2,19-May-2017,1,8,stim.wav,1,17,4322,-6.741415759216234,0,0.6933315543969663
2,19-May-2017,1,8,stim.wav,1,18,4895,5.922515284100699,0,0.6933315543969663
2,19-May-2017,1,8,stim.wav,1,19,5534,0.7804586041735702,0,0.6933315543969663
2,19-May-2017,1,8,stim.wav,1,20,6245,-4.064917322772992,0,0.6933315543969663
2,19-May-2017,1,8,stim.wav,1,21,7037,0.21184854817965304,0,0.6933315543969663
2,19-May-2017,1,8,stim.wav,1,22,7920,-4.938890350133306,0,0.6933315543969663
2,19-May-2017,1,8,stim.wav,1,23,8904,-5.387003473527184,0,0.6933315543969663
2,19-May-2017,1,8,stim.wav,1,24,10000,-0.11796555021841794,0,0.6933315543969663
2,19-May-2017,1,9,stim.wav,0,0,100,3.864483985600815,1,1.1833881553627235
2,19-May-2017,1,9,stim.wav,0,1,191,-8.327224244359977,1,1.1833881553627235
2,19-May-2017,1,9,stim.wav,0,2,293,5.804941481043477,1,1.1833881553627235
2,19-May-2017,1,9,stim.wav,0,3,406,-4.830942029416682,1,1.1833881553627235
2,19-May-2017,1,9,stim.wav,0,4,533,0.6733810567416582,1,1.1833881553627235
2,19-May-2017,1,9,stim.wav,0,5,673,-2.688916131136463,1,1.1833881553627235
2,19-May-2017,1,9,stim.wav,0,6,830,5.5998479834503065,1,1.1833881553627235
2,19-May-2017,1,9,stim.wav,0,7,1004,-2.10850399644616,1,1.1833881553627235
2,19-May-2017,1,9,stim.wav,0,8,1199,-9.759453627980355,1,1.1833881553627235
2,19-May-2017,1,9,stim.wav,0,9,1416,-0.6657371137831359,1,1.1833881553627235
2,19-May-2017,1,9,stim.wav,0,10,1657,0.2983941315722481,1,1.1833881553627235
2,19-May-2017,1,9,stim.wav,0,11,1926,3.118518759067883,1,1.1833881553627235
2,19-May-2017,1,9,stim.wav,0,12,2226,-3.6403309263192005,1,1.1833881553627235
2,19-May-2017,1,9,stim.wav,0,13,2560,-2.088115898438936,1,1.1833881553627235
2,19-May-2017,1,9,stim.wav,0,14,2932,-3.119558735625681,1,1.1833881553627235
2,19-May-2017,1,9,stim.wav,0,15,3346,0.4607830350337145,1,1.1833881553627235
2,19-May-2017,1,9,stim.wav,0,16,3808,8.704122964233356,1,1.1833881553627235
2,19-May-2017,1,9,stim.wav,0,17,4322,9.54320739049263,1,1.1833881553627235
2,19-May-2017,1,9,stim.wav,0,18,4895,4.6719562118984435,1,1.1833881553627235
2,19-May-2017,1,9,stim.wav,0,19,5534,5.823503742814179,1,1.1833881553627235
2,19-May-2017,1,9,stim.wav,0,20,6245,5.848872896173897,1,1.1833881553627235
2,19-May-2017,1,9,stim.wav,0,21,7037,-2.96327082109614,1,1.1833881553627235
2,19-May-2017,1,9,stim.wav,0,22,7920,6.134763670025729,1,1.1833881553627235
2,19-May-2017,1,9,stim.wav,0,23,8904,-5.140583276767209,1,1.1833881553627235
2,19-May-2017,1,9,stim.wav,0,24,10000,-1.369244135373175,1,1.1833881553627235
2,19-May-2017,1,9,stim.wav,1,0,100,1.7691636385570502,0,1.1833881553627235
2,19-May-2017,1,9,stim.wav,1,1,191,2.0448320597758416,0,1.1833881553627235
2,19-May-2017,1,9,stim.wav,1,2,293,0.2078497544243068,0,1.1833881553627235
2,19-May-2017,1,9,stim.wav,1,3,406,1.3592371521147197,0,1.1833881553627235
2,19-May-2017,1,9,stim.wav,1,4,533,0.8876706198108593,0,1.1833881553627235
2,19-May-2017,1,9,stim.wav,1,5,673,0.504907063771028,0,1.1833881553627235
2,19-May-2017,1,9,stim.wav,1,6,830,1.7149791072997376,0,1.1833881553627235
2,19-May-2017,1,9,stim.wav,1,7,1004,1.9546605087354083,0,1.1833881553627235
2,19-May-2017,1,9,stim.wav,1,8,1199,-1.8964115921920899,0,1.1833881553627235
2,19-May-2017,1,9,stim.wav,1,9,1416,0.5992001855753908,0,1.1833881553627235
2,19-May-2017,1,9,stim.wav,1,10,1657,1.2690427224848622,0,1.1833881553627235
2,19-May-2017,1,9,stim.wav,1,11,1926,6.639528230360633,0,1.1833881553627235
2,19-May-2017,1,9,stim.wav,1,12,2226,3.9891155578085,0,1.1833881553627235
2,19-May-2017,1,9,stim.wav,1,13,2560,-0.37290877821585405,0,1.1833881553627235
2,19-May-2017,1,9,stim.wav,1,14,2932,-2.52560802484247,0,1.1833881553627235
2,19-May-2017,1,9,stim.wav,1,15,3346,-2.4672224563962937,0,1.1833881553627235
2,19-May-2017,1,9,stim.wav,1,16,3808,7.103020855153156,0,1.1833881553627235
2,19-May-2017,1,9,stim.wav,1,17,4322,6.289603475708729,0,1.1833881553627235
2,19-May-2017,1,9,stim.wav,1,18,4895,-7.086964060251335,0,1.1833881553627235
2,19-May-2017,1,9,stim.wav,1,19,5534,0.6853794405321909,0,1.1833881553627235
2,19-May-2017,1,9,stim.wav,1,20,6245,4.267299492988453,0,1.1833881553627235
2,19-May-2017,1,9,stim.wav,1,21,7037,-1.9130076231817137,0,1.1833881553627235
2,19-May-2017,1,9,stim.wav,1,22,7920,0.3969333055446656,0,1.1833881553627235
2,19-May-2017,1,9,stim.wav,1,23,8904,-5.804883446973851,0,1.1833881553627235
2,19-May-2017,1,9,stim.wav,1,24,10000,-3.5894060956194522,0,1.1833881553627235
2,19-May-2017,1,10,stim.wav,0,0,100,2.2197048375922916,1,0.7487837377847795
2,19-May-2017,1,10,stim.wav,0,1,191,4.848171879484793,1,0.7487837377847795
2,19-May-2017,1,10,stim.wav,0,2,293,-10.144027057869833,1,0.7487837377847795
2,19-May-2017,1,10,stim.wav,0,3,406,3.0336659472079637,1,0.7487837377847795
2,19-May-2017,1,10,stim.wav,0,4,533,-3.8451207392772413,1,0.7487837377847795
2,19-May-2017,1,10,stim.wav,0,5,673,7.771695770961756,1,0.7487837377847795
2,19-May-2017,1,10,stim.wav,0,6,830,2.176472350636602,1,0.7487837377847795
2,19-May-2017,1,10,stim.wav,0,7,1004,3.5881297096557025,1,0.7487837377847795
2,19-May-2017,1,10,stim.wav,0,8,1199,-2.232265901745987,1,0.7487837377847795
2,19-May-2017,1,10,stim.wav,0,9,1416,-2.2050765187806305,1,0.7487837377847795
2,19-May-2017,1,10,stim.wav,0,10,1657,4.849871107590202,1,0.7487837377847795
2,19-May-2017,1,10,stim.wav,0,11,1926,-0.04630371505668329,1,0.7487837377847795
2,19-May-2017,1,10,stim.wav,0,12,2226,-2.0089723754180406,1,0.7487837377847795
2,19-May-2017,1,10,stim.wav,0,13,2560,1.0495343665227646,1,0.7487837377847795
2,19-May-2017,1,10,stim.wav,0,14,2932,-7.807954092209085,1,0.7487837377847795
2,19-May-2017,1,10,stim.wav,0,15,3346,-8.437761825190279,1,0.7487837377847795
2,19-May-2017,1,10,stim.wav,0,16,3808,4.132960753405499,1,0.7487837377847795
2,19-May-2017,1,10,stim.wav,0,17,4322,0.30635031004754487,1,0.7487837377847795
2,19-May-2017,1,10,stim.wav,0,18,4895,0.13327022259923368,1,0.7487837377847795
2,19-May-2017,1,10,stim.wav,0,19,5534,5.460604722393374,1,0.7487837377847795
2,19-May-2017,1,10,stim.wav,0,20,6245,0.1098103161933596,1,0.7487837377847795
2,19-May-2017,1,10,stim.wav,0,21,7037,-3.5502030069014534,1,0.7487837377847795
2,19-May-2017,1,10,stim.wav,0,22,7920,1.388645609053958,1,0.7487837377847795
2,19-May-2017,1,10,stim.wav,0,23,8904,-0.7892652956583592,1,0.7487837377847795
2,19-May-2017,1,10,stim.wav,0,24,10000,-2.584305548675167,1,0.7487837377847795
2,19-May-2017,1,10,stim.wav,1,0,100,2.5005806909160375,0,0.7487837377847795
2,19-May-2017,1,10,stim.wav,1,1,191,7.608009058812336,0,0.7487837377847795
2,19-May-2017,1,10,stim.wav,1,2,293,-5.854050227471182,0,0.7487837377847795
2,19-May-2017,1,10,stim.wav,1,3,406,3.259659089381164,0,0.7487837377847795
2,19-May-2017,1,10,stim.wav,1,4,533,1.7388677311191028,0,0.7487837377847795
2,19-May-2017,1,10,stim.wav,1,5,673,-0.04317175701892706,0,0.7487837377847795
2,19-May-2017,1,10,stim.wav,1,6,830,-3.782805451561866,0,0.7487837377847795
2,19-May-2017,1,10,stim.wav,1,7,1004,-0.32670955120582856,0,0.7487837377847795
2,19-May-2017,1,10,stim.wav,1,8,1199,0.3031620392659276,0,0.7487837377847795
2,19-May-2017,1,10,stim.wav,1,9,1416,-8.742743056958112,0,0.7487837377847795
2,19-May-2017,1,10,stim.wav,1,10,1657,0.030061156234893437,0,0.7487837377847795
2,19-May-2017,1,10,stim.wav,1,11,1926,-2.0503224022100945,0,0.7487837377847795
2,19-May-2017,1,10,stim.wav,1,12,2226,2.2167476824330303,0,0.7487837377847795
2,19-May-2017,1,10,stim.wav,1,13,2560,-5.7917321705517155,0,0.7487837377847795
2,19-May-2017,1,10,stim.wav,1,14,2932,-2.3303244067020223,0,0.7487837377847795
2,19-May-2017,1,10,stim.wav,1,15,3346,-0.5260808338717601,0,0.7487837377847795
2,19-May-2017,1,10,stim.wav,1,16,3808,3.1486456165448713,0,0.7487837377847795
2,19-May-2017,1,10,stim.wav,1,17,4322,1.4364514472706449,0,0.7487837377847795
2,19-May-2017,1,10,stim.wav,1,18,4895,1.9003412853334425,0,0.7487837377847795
2,19-May-2017,1,10,stim.wav,1,19,5534,1.253491578636928,0,0.7487837377847795
2,19-May-2017,1,10,stim.wav,1,20,6245,4.302572600321582,0,0.7487837377847795
2,19-May-2017,1,10,stim.wav,1,21,7037,-6.381897723046199,0,0.7487837377847795
2,19-May-2017,1,10,stim.wav,1,22,7920,5.4960373120349715,0,0.7487837377847795
2,19-May-2017,1,10,stim.wav,1,23,8904,-0.1885876871018432,0,0.7487837377847795
2,19-May-2017,1,10,stim.wav,1,24,10000,1.5759522757192188,0,0.7487837377847795
2,19-May-2017,1,11,stim.wav,0,0,100,-0.5465541181774041,0,0.6706661945643231
2,19-May-2017,1,11,stim.wav,0,1,191,-0.8457602782054026,0,0.6706661945643231
2,19-May-2017,1,11,stim.wav,0,2,293,-5.931722079922233,0,0.6706661945643231
2,19-May-2017,1,11,stim.wav,0,3,406,1.2912741454210037,0,0.6706661945643231
2,19-May-2017,1,11,stim.wav,0,4,533,0.17309505027487626,0,0.6706661945643231
2,19-May-2017,1,11,stim.wav,0,5,673,8.730627348118853,0,0.6706661945643231
2,19-May-2017,1,11,stim.wav,0,6,830,-3.298484219052289,0,0.6706661945643231
2,19-May-2017,1,11,stim.wav,0,7,1004,0.7562806596195077,0,0.6706661945643231
2,19-May-2017,1,11,stim.wav,0,8,1199,-2.142665712224105,0,0.6706661945643231
2,19-May-2017,1,11,stim.wav,0,9,1416,-4.969159703824163,0,0.6706661945643231
2,19-May-2017,1,11,stim.wav,0,10,1657,5.033297687385114,0,0.6706661945643231
2,19-May-2017,1,11,stim.wav,0,11,1926,4.22394538037249,0,0.6706661945643231
2,19-May-2017,1,11,stim.wav,0,12,2226,4.098126380268653,0,0.6706661945643231
2,19-May-2017,1,11,stim.wav,0,13,2560,5.2498045434708995,0,0.6706661945643231
2,19-May-2017,1,11,stim.wav,0,14,2932,6.212697610341174,0,0.6706661945643231
2,19-May-2017,1,11,stim.wav,0,15,3346,4.45916482655393,0,0.6706661945643231
2,19-May-2017,1,11,stim.wav,0,16,3808,1.8115989362912424,0,0.6706661945643231
2,19-May-2017,1,11,stim.wav,0,17,4322,-0.9083700432479194,0,0.6706661945643231
2,19-May-2017,1,11,stim.wav,0,18,4895,5.054296999246039,0,0.6706661945643231
2,19-May-2017,1,11,stim.wav,0,19,5534,0.8294763289694574,0,0.6706661945643231
2,19-May-2017,1,11,stim.wav,0,20,6245,-8.129631499872312,0,0.6706661945643231
2,19-May-2017,1,11,stim.wav,0,21,7037,1.570434414227059,0,0.6706661945643231
2,19-May-2017,1,11,stim.wav,0,22,7920,0.10552086238280468,0,0.6706661945643231
2,19-May-2017,1,11,stim.wav,0,23,8904,-0.4330969179891674,0,0.6706661945643231
2,19-May-2017,1,11,stim.wav,0,24,10000,-4.664104515926438,0,0.6706661945643231
2,19-May-2017,1,11,stim.wav,1,0,100,2.242163488104501,1,0.6706661945643231
2,19-May-2017,1,11,stim.wav,1,1,191,5.362964428600458,1,0.6706661945643231
2,19-May-2017,1,11,stim.wav,1,2,293,0.612799557829036,1,0.6706661945643231
2,19-May-2017,1,11,stim.wav,1,3,406,-0.13343138850163622,1,0.6706661945643231
2,19-May-2017,1,11,stim.wav,1,4,533,-5.792768237566115,1,0.6706661945643231
2,19-May-2017,1,11,stim.wav,1,5,673,1.8014894607479461,1,0.6706661945643231
2,19-May-2017,1,11,stim.wav,1,6,830,-0.3741918922412304,1,0.6706661945643231
2,19-May-2017,1,11,stim.wav,1,7,1004,3.827188279555962,1,0.6706661945643231
2,19-May-2017,1,11,stim.wav,1,8,1199,0.6580414974887159,1,0.6706661945643231
2,19-May-2017,1,11,stim.wav,1,9,1416,-1.9769827345310256,1,0.6706661945643231
2,19-May-2017,1,11,stim.wav,1,10,1657,-2.068222086812564,1,0.6706661945643231
2,19-May-2017,1,11,stim.wav,1,11,1926,5.219570548989362,1,0.6706661945643231
2,19-May-2017,1,11,stim.wav,1,12,2226,-2.2319153704132138,1,0.6706661945643231
2,19-May-2017,1,11,stim.wav,1,13,2560,2.930345472079085,1,0.6706661945643231
2,19-May-2017,1,11,stim.wav,1,14,2932,1.948975102752932,1,0.6706661945643231
2,19-May-2017,1,11,stim.wav,1,15,3346,-0.830644324227713,1,0.6706661945643231
2,19-May-2017,1,11,stim.wav,1,16,3808,-6.945947090229564,1,0.6706661945643231
2,19-May-2017,1,11,stim.wav,1,17,4322,-1.0474919147058424,1,0.6706661945643231
2,19-May-2017,1,11,stim.wav,1,18,4895,-4.6915217179970155,1,0.6706661945643231
2,19-May-2017,1,11,stim.wav,1,19,5534,6.575218336762141,1,0.6706661945643231
2,19-May-2017,1,11,stim.wav,1,20,6245,2.129511911921542,1,0.6706661945643231
2,19-May-2017,1,11,stim.wav,1,21,7037,4.914880296040102,1,0.6706661945643231
2,19-May-2017,1,11,stim.wav,1,22,7920,-7.703233702283954,1,0.6706661945643231
2,19-May-2017,1,11,stim.wav,1,23,8904,0.02121447662024379,1,0.6706661945643231
2,19-May-2017,1,11,stim.wav,1,24,10000,-3.6125838140536692,1,0.6706661945643231
2,19-May-2017,1,12,stim.wav,0,0,100,-2.370358005789071,1,0.9088746688013903
2,19-May-2017,1,12,stim.wav,0,1,191,-4.40494743444854,1,0.9088746688013903
2,19-May-2017,1,12,stim.wav,0,2,293,7.401143931913683,1,0.9088746688013903
2,19-May-2017,1,12,stim.wav,0,3,406,6.080267851698807,1,0.9088746688013903
2,19-May-2017,1,12,stim.wav,0,4,533,-4.695573149392511,1,0.9088746688013903
2,19-May-2017,1,12,stim.wav,0,5,673,-7.523350161829412,1,0.9088746688013903
2,19-May-2017,1,12,stim.wav,0,6,830,4.3178162091758585,1,0.9088746688013903
2,19-May-2017,1,12,stim.wav,0,7,1004,-4.522837529725249,1,0.9088746688013903
2,19-May-2017,1,12,stim.wav,0,8,1199,-10.122096234077054,1,0.9088746688013903
2,19-May-2017,1,12,stim.wav,0,9,1416,-2.9106753027555277,1,0.9088746688013903
2,19-May-2017,1,12,stim.wav,0,10,1657,-4.348222931706862,1,0.9088746688013903
2,19-May-2017,1,12,stim.wav,0,11,1926,-2.64571290566523,1,0.9088746688013903
2,19-May-2017,1,12,stim.wav,0,12,2226,1.5637811185641515,1,0.9088746688013903
2,19-May-2017,1,12,stim.wav,0,13,2560,4.787009869612433,1,0.9088746688013903
2,19-May-2017,1,12,stim.wav,0,14,2932,3.1147048153301133,1,0.9088746688013903
2,19-May-2017,1,12,stim.wav,0,15,3346,-3.92277606058228,1,0.9088746688013903
2,19-May-2017,1,12,stim.wav,0,16,3808,9.04730168511186,1,0.9088746688013903
2,19-May-2017,1,12,stim.wav,0,17,4322,3.680573654472672,1,0.9088746688013903
2,19-May-2017,1,12,stim.wav,0,18,4895,-0.1814598705201088,1,0.9088746688013903
2,19-May-2017,1,12,stim.wav,0,19,5534,8.014821543746123,1,0.9088746688013903
2,19-May-2017,1,12,stim.wav,0,20,6245,3.3008892827746825,1,0.9088746688013903
2,19-May-2017,1,12,stim.wav,0,21,7037,4.779764157556798,1,0.9088746688013903
2,19-May-2017,1,12,stim.wav,0,22,7920,4.029869997040521,1,0.9088746688013903
2,19-May-2017,1,12,stim.wav,0,23,8904,2.469284683316774,1,0.9088746688013903
2,19-May-2017,1,12,stim.wav,0,24,10000,0.35785998292521554,1,0.9088746688013903
2,19-May-2017,1,12,stim.wav,1,0,100,5.063843033569713,0,0.9088746688013903
2,19-May-2017,1,12,stim.wav,1,1,191,-3.535672394070014,0,0.9088746688013903
2,19-May-2017,1,12,stim.wav,1,2,293,7.915282618090784,0,0.9088746688013903
2,19-May-2017,1,12,stim.wav,1,3,406,-1.9080375544361805,0,0.9088746688013903
2,19-May-2017,1,12,stim.wav,1,4,533,4.687508680185383,0,0.9088746688013903
2,19-May-2017,1,12,stim.wav,1,5,673,-2.1856450969862746,0,0.9088746688013903
2,19-May-2017,1,12,stim.wav,1,6,830,-4.16759702709039,0,0.9088746688013903
2,19-May-2017,1,12,stim.wav,1,7,1004,-1.9317299400810481,0,0.9088746688013903
2,19-May-2017,1,12,stim.wav,1,8,1199,5.2493933431125175,0,0.9088746688013903
2,19-May-2017,1,12,stim.wav,1,9,1416,6.261742275036833,0,0.9088746688013903
2,19-May-2017,1,12,stim.wav,1,10,1657,-4.80075357271093,0,0.9088746688013903
2,19-May-2017,1,12,stim.wav,1,11,1926,-8.83585135937153,0,0.9088746688013903
2,19-May-2017,1,12,stim.wav,1,12,2226,2.2000344619832695,0,0.9088746688013903
2,19-May-2017,1,12,stim.wav,1,13,2560,-7.808051144281265,0,0.9088746688013903
2,19-May-2017,1,12,stim.wav,1,14,2932,-2.0409592854931375,0,0.9088746688013903
2,19-May-2017,1,12,stim.wav,1,15,3346,-3.583721115441498,0,0.9088746688013903
2,19-May-2017,1,12,stim.wav,1,16,3808,3.1990008616360983,0,0.9088746688013903
2,19-May-2017,1,12,stim.wav,1,17,4322,3.9197875361482026,0,0.9088746688013903
2,19-May-2017,1,12,stim.wav,1,18,4895,-11.252766291725907,0,0.9088746688013903
2,19-May-2017,1,12,stim.wav,1,19,5534,-7.772971790578688,0,0.9088746688013903
2,19-May-2017,1,12,stim.wav,1,20,6245,3.930019468242278,0,0.9088746688013903
2,19-May-2017,1,12,stim.wav,1,21,7037,0.19749232141754988,0,0.9088746688013903
2,19-May-2017,1,12,stim.wav,1,22,7920,-1.6173070087148131,0,0.9088746688013903
2,19-May-2017,1,12,stim.wav,1,23,8904,0.10085171652717129,0,0.9088746688013903
2,19-May-2017,1,12,stim.wav,1,24,10000,-3.5123045605338694,0,0.9088746688013903
2,19-May-2017,1,13,stim.wav,0,0,100,2.224557706997219,0,2.1820789266171645
2,19-May-2017,1,13,stim.wav,0,1,191,-3.1519283884523452,0,2.1820789266171645
2,19-May-2017,1,13,stim.wav,0,2,293,1.3407685125939162,0,2.1820789266171645
2,19-May-2017,1,13,stim.wav,0,3,406,2.8080714547686485,0,2.1820789266171645
2,19-May-2017,1,13,stim.wav,0,4,533,7.407866147315874,0,2.1820789266171645
2,19-May-2017,1,13,stim.wav,0,5,673,4.269225112531962,0,2.1820789266171645
2,19-May-2017,1,13,stim.wav,0,6,830,4.1252008328681296,0,2.1820789266171645
2,19-May-2017,1,13,stim.wav,0,7,1004,2.3281525183596234,0,2.1820789266171645
2,19-May-2017,1,13,stim.wav,0,8,1199,3.1944992305140927,0,2.1820789266171645
2,19-May-2017,1,13,stim.wav,0,9,1416,-2.921367421113988,0,2.1820789266171645
2,19-May-2017,1,13,stim.wav,0,10,1657,1.3763287681216547,0,2.1820789266171645
2,19-May-2017,1,13,stim.wav,0,11,1926,-0.7307550753304869,0,2.1820789266171645
2,19-May-2017,1,13,stim.wav,0,12,2226,-1.89623594927208,0,2.1820789266171645
2,19-May-2017,1,13,stim.wav,0,13,2560,0.9392979053196461,0,2.1820789266171645
2,19-May-2017,1,13,stim.wav,0,14,2932,-3.6021969589954717,0,2.1820789266171645
2,19-May-2017,1,13,stim.wav,0,15,3346,-1.6683423880008115,0,2.1820789266171645
2,19-May-2017,1,13,stim.wav,0,16,3808,-6.284055376547707,0,2.1820789266171645
2,19-May-2017,1,13,stim.wav,0,17,4322,4.247167450535904,0,2.1820789266171645
2,19-May-2017,1,13,stim.wav,0,18,4895,1.2464242198866995,0,2.1820789266171645
2,19-May-2017,1,13,stim.wav,0,19,5534,-6.541693950215763,0,2.1820789266171645
2,19-May-2017,1,13,stim.wav,0,20,6245,2.6246548980101103,0,2.1820789266171645
2,19-May-2017,1,13,stim.wav,0,21,7037,-3.751366320710325,0,2.1820789266171645
2,19-May-2017,1,13,stim.wav,0,22,7920,4.307661820381982,0,2.1820789266171645
2,19-May-2017,1,13,stim.wav,0,23,8904,-1.8368995035096227,0,2.1820789266171645
2,19-May-2017,1,13,stim.wav,0,24,10000,-3.8565939220537753,0,2.1820789266171645
2,19-May-2017,1,13,stim.wav,1,0,100,-1.1739254419090912,1,2.1820789266171645
2,19-May-2017,1,13,stim.wav,1,1,191,-6.503069742376298,1,2.1820789266171645
2,19-May-2017,1,13,stim.wav,1,2,293,1.4874085740192913,1,2.1820789266171645
2,19-May-2017,1,13,stim.wav,1,3,406,-1.5336845359443685,1,2.1820789266171645
2,19-May-2017,1,13,stim.wav,1,4,533,1.4401566669710104,1,2.1820789266171645
2,19-May-2017,1,13,stim.wav,1,5,673,-0.94227918623798,1,2.1820789266171645
2,19-May-2017,1,13,stim.wav,1,6,830,-1.6022633585835213,1,2.1820789266171645
2,19-May-2017,1,13,stim.wav,1,7,1004,9.398498297901664,1,2.1820789266171645
2,19-May-2017,1,13,stim.wav,1,8,1199,9.159960708175742,1,2.1820789266171645
2,19-May-2017,1,13,stim.wav,1,9,1416,-0.5157152539618971,1,2.1820789266171645
2,19-May-2017,1,13,stim.wav,1,10,1657,-2.6063289956967486,1,2.1820789266171645
2,19-May-2017,1,13,stim.wav,1,11,1926,3.8252636679987226,1,2.1820789266171645
2,19-May-2017,1,13,stim.wav,1,12,2226,1.0099210376497056,1,2.1820789266171645
2,19-May-2017,1,13,stim.wav,1,13,2560,-0.45566379482611863,1,2.1820789266171645
2,19-May-2017,1,13,stim.wav,1,14,2932,3.801954649642137,1,2.1820789266171645
2,19-May-2017,1,13,stim.wav,1,15,3346,7.697503375678526,1,2.1820789266171645
2,19-May-2017,1,13,stim.wav,1,16,3808,-1.4635347738130067,1,2.1820789266171645
2,19-May-2017,1,13,stim.wav,1,17,4322,6.851436836280302,1,2.1820789266171645
2,19-May-2017,1,13,stim.wav,1,18,4895,3.3885325876975267,1,2.1820789266171645
2,19-May-2017,1,13,stim.wav,1,19,5534,-4.240648516541832,1,2.1820789266171645
2,19-May-2017,1,13,stim.wav,1,20,6245,-0.7054894788598222,1,2.1820789266171645
2,19-May-2017,1,13,stim.wav,1,21,7037,-0.8872947929525771,1,2.1820789266171645
2,19-May-2017,1,13,stim.wav,1,22,7920,-0.9080628562131734,1,2.1820789266171645
2,19-May-2017,1,13,stim.wav,1,23,8904,-6.318506301576657,1,2.1820789266171645
2,19-May-2017,1,13,stim.wav,1,24,10000,-1.1683733315852347,1,2.1820789266171645
2,19-May-2017,1,14,stim.wav,0,0,100,9.259313783595276,1,0.7987889548577791
2,19-May-2017,1,14,stim.wav,0,1,191,-4.005132121545128,1,0.7987889548577791
2,19-May-2017,1,14,stim.wav,0,2,293,4.806426024168282,1,0.7987889548577791
2,19-May-2017,1,14,stim.wav,0,3,406,0.5220212771257036,1,0.7987889548577791
2,19-May-2017,1,14,stim.wav,0,4,533,-2.3542104447468457,1,0.7987889548577791
2,19-May-2017,1,14,stim.wav,0,5,673,-1.1274378293991738,1,0.7987889548577791
2,19-May-2017,1,14,stim.wav,0,6,830,-4.610396951201182,1,0.7987889548577791
2,19-May-2017,1,14,stim.wav,0,7,1004,1.190810857041018,1,0.7987889548577791
2,19-May-2017,1,14,stim.wav,0,8,1199,0.4176113090901349,1,0.7987889548577791
2,19-May-2017,1,14,stim.wav,0,9,1416,7.183180479411333,1,0.7987889548577791
2,19-May-2017,1,14,stim.wav,0,10,1657,-1.3879563888688486,1,0.7987889548577791
2,19-May-2017,1,14,stim.wav,0,11,1926,1.268530414047921,1,0.7987889548577791
2,19-May-2017,1,14,stim.wav,0,12,2226,6.231955020712334,1,0.7987889548577791
2,19-May-2017,1,14,stim.wav,0,13,2560,-4.113899654211072,1,0.7987889548577791
2,19-May-2017,1,14,stim.wav,0,14,2932,2.847221956640777,1,0.7987889548577791
2,19-May-2017,1,14,stim.wav,0,15,3346,-5.723108313211719,1,0.7987889548577791
2,19-May-2017,1,14,stim.wav,0,16,3808,2.156540158696057,1,0.7987889548577791
2,19-May-2017,1,14,stim.wav,0,17,4322,2.2028794525247077,1,0.7987889548577791
2,19-May-2017,1,14,stim.wav,0,18,4895,-1.087847320880075,1,0.7987889548577791
2,19-May-2017,1,14,stim.wav,0,19,5534,-3.018967850230415,1,0.7987889548577791
2,19-May-2017,1,14,stim.wav,0,20,6245,-6.180978994783945,1,0.7987889548577791
2,19-May-2017,1,14,stim.wav,0,21,7037,3.951621493966951,1,0.7987889548577791
2,19-May-2017,1,14,stim.wav,0,22,7920,0.2970976140658314,1,0.7987889548577791
2,19-May-2017,1,14,stim.wav,0,23,8904,-6.469206478205579,1,0.7987889548577791
2,19-May-2017,1,14,stim.wav,0,24,10000,-4.871543320147376,1,0.7987889548577791
2,19-May-2017,1,14,stim.wav,1,0,100,9.232573211893865,0,0.7987889548577791
2,19-May-2017,1,14,stim.wav,1,1,191,-1.6910392026020602,0,0.7987889548577791
2,19-May-2017,1,14,stim.wav,1,2,293,-0.9221321893200434,0,0.7987889548577791
2,19-May-2017,1,14,stim.wav,1,3,406,2.317402011709845,0,0.7987889548577791
2,19-May-2017,1,14,stim.wav,1,4,533,0.6464571581774424,0,0.7987889548577791
2,19-May-2017,1,14,stim.wav,1,5,673,1.2943943610176816,0,0.7987889548577791
2,19-May-2017,1,14,stim.wav,1,6,830,-0.429936425001008,0,0.7987889548577791
2,19-May-2017,1,14,stim.wav,1,7,1004,3.525200453493368,0,0.7987889548577791
2,19-May-2017,1,14,stim.wav,1,8,1199,-1.3549860471076292,0,0.7987889548577791
2,19-May-2017,1,14,stim.wav,1,9,1416,-3.179150671466544,0,0.7987889548577791
2,19-May-2017,1,14,stim.wav,1,10,1657,3.6954385622643438,0,0.7987889548577791
2,19-May-2017,1,14,stim.wav,1,11,1926,4.988342610603416,0,0.7987889548577791
2,19-May-2017,1,14,stim.wav,1,12,2226,3.461092510238335,0,0.7987889548577791
2,19-May-2017,1,14,stim.wav,1,13,2560,-9.708458880479254,0,0.7987889548577791
2,19-May-2017,1,14,stim.wav,1,14,2932,2.9916640281843794,0,0.7987889548577791
2,19-May-2017,1,14,stim.wav,1,15,3346,-8.351320609885082,0,0.7987889548577791
2,19-May-2017,1,14,stim.wav,1,16,3808,-1.9973867127844769,0,0.7987889548577791
2,19-May-2017,1,14,stim.wav,1,17,4322,-1.5584241987927991,0,0.7987889548577791
2,19-May-2017,1,14,stim.wav,1,18,4895,6.6838379654853854,0,0.7987889548577791
2,19-May-2017,1,14,stim.wav,1,19,5534,-3.593658228842332,0,0.7987889548577791
2,19-May-2017,1,14,stim.wav,1,20,6245,-5.810981200693782,0,0.7987889548577791
2,19-May-2017,1,14,stim.wav,1,21,7037,-0.7840851722802672,0,0.7987889548577791
2,19-May-2017,1,14,stim.wav,1,22,7920,-5.537275955577029,0,0.7987889548577791
2,19-May-2017,1,14,stim.wav,1,23,8904,-7.118223635298837,0,0.7987889548577791
2,19-May-2017,1,14,stim.wav,1,24,10000,-6.076551496883585,0,0.7987889548577791
2,19-May-2017,1,15,stim.wav,0,0,100,7.595236531964932,0,0.5349815862980848
2,19-May-2017,1,15,stim.wav,0,1,191,-2.97201814894358,0,0.5349815862980848
2,19-May-2017,1,15,stim.wav,0,2,293,7.37119097150604,0,0.5349815862980848
2,19-May-2017,1,15,stim.wav,0,3,406,7.245307568160232,0,0.5349815862980848
2,19-May-2017,1,15,stim.wav,0,4,533,3.15746635119265,0,0.5349815862980848
2,19-May-2017,1,15,stim.wav,0,5,673,0.09699450716791334,0,0.5349815862980848
2,19-May-2017,1,15,stim.wav,0,6,830,-0.2927619952355486,0,0.5349815862980848
2,19-May-2017,1,15,stim.wav,0,7,1004,-3.0261635018783997,0,0.5349815862980848
2,19-May-2017,1,15,stim.wav,0,8,1199,-8.89567352032362,0,0.5349815862980848
2,19-May-2017,1,15,stim.wav,0,9,1416,4.983490348374438,0,0.5349815862980848
2,19-May-2017,1,15,stim.wav,0,10,1657,-2.126655152103407,0,0.5349815862980848
2,19-May-2017,1,15,stim.wav,0,11,1926,5.478016173596202,0,0.5349815862980848
2,19-May-2017,1,15,stim.wav,0,12,2226,-4.113016641627964,0,0.5349815862980848
2,19-May-2017,1,15,stim.wav,0,13,2560,4.513115906197148,0,0.5349815862980848
2,19-May-2017,1,15,stim.wav,0,14,2932,-2.909354447645506,0,0.5349815862980848
2,19-May-2017,1,15,stim.wav,0,15,3346,1.4176382571886603,0,0.5349815862980848
2,19-May-2017,1,15,stim.wav,0,16,3808,3.870518564080074,0,0.5349815862980848
2,19-May-2017,1,15,stim.wav,0,17,4322,5.302665029543717,0,0.5349815862980848
2,19-May-2017,1,15,stim.wav,0,18,4895,-1.6241407754719714,0,0.5349815862980848
2,19-May-2017,1,15,stim.wav,0,19,5534,6.426965028735017,0,0.5349815862980848
2,19-May-2017,1,15,stim.wav,0,20,6245,-0.33601275792684215,0,0.5349815862980848
2,19-May-2017,1,15,stim.wav,0,21,7037,-2.778370356367128,0,0.5349815862980848
2,19-May-2017,1,15,stim.wav,0,22,7920,-3.938372851777641,0,0.5349815862980848
2,19-May-2017,1,15,stim.wav,0,23,8904,3.1139089741361974,0,0.5349815862980848
2,19-May-2017,1,15,stim.wav,0,24,10000,2.1955749574710866,0,0.5349815862980848
2,19-May-2017,1,15,stim.wav,1,0,100,1.504140729648036,1,0.5349815862980848
2,19-May-2017,1,15,stim.wav,1,1,191,-9.2643169643786,1,0.5349815862980848
2,19-May-2017,1,15,stim.wav,1,2,293,1.7381141385453827,1,0.5349815862980848
2,19-May-2017,1,15,stim.wav,1,3,406,3.4171353731647987,1,0.5349815862980848
2,19-May-2017,1,15,stim.wav,1,4,533,-5.292322838422648,1,0.5349815862980848
2,19-May-2017,1,15,stim.wav,1,5,673,0.8805619248835821,1,0.5349815862980848
2,19-May-2017,1,15,stim.wav,1,6,830,0.19540240700990147,1,0.5349815862980848
2,19-May-2017,1,15,stim.wav,1,7,1004,9.102493869340417,1,0.5349815862980848
2,19-May-2017,1,15,stim.wav,1,8,1199,7.481711289136261,1,0.5349815862980848
2,19-May-2017,1,15,stim.wav,1,9,1416,-0.39189920370998416,1,0.5349815862980848
2,19-May-2017,1,15,stim.wav,1,10,1657,-2.259049742133926,1,0.5349815862980848
2,19-May-2017,1,15,stim.wav,1,11,1926,-4.264867241283955,1,0.5349815862980848
2,19-May-2017,1,15,stim.wav,1,12,2226,-6.553332929373154,1,0.5349815862980848
2,19-May-2017,1,15,stim.wav,1,13,2560,-3.0983118578539717,1,0.5349815862980848
2,19-May-2017,1,15,stim.wav,1,14,2932,4.505166913683756,1,0.5349815862980848
2,19-May-2017,1,15,stim.wav,1,15,3346,-3.7414153964788106,1,0.5349815862980848
2,19-May-2017,1,15,stim.wav,1,16,3808,2.695721500094465,1,0.5349815862980848
2,19-May-2017,1,15,stim.wav,1,17,4322,2.0939220968465473,1,0.5349815862980848
2,19-May-2017,1,15,stim.wav,1,18,4895,-6.129551484195252,1,0.5349815862980848
2,19-May-2017,1,15,stim.wav,1,19,5534,-9.295891297119844,1,0.5349815862980848
2,19-May-2017,1,15,stim.wav,1,20,6245,5.5220482927587335,1,0.5349815862980848
2,19-May-2017,1,15,stim.wav,1,21,7037,5.63978517324938,1,0.5349815862980848
2,19-May-2017,1,15,stim.wav,1,22,7920,-1.7610012045168313,1,0.5349815862980848
2,19-May-2017,1,15,stim.wav,1,23,8904,8.34878892536963,1,0.5349815862980848
2,19-May-2017,1,15,stim.wav,1,24,10000,-2.236084969852112,1,0.5349815862980848
2,19-May-2017,1,16,stim.wav,0,0,100,2.9425278634078014,1,1.0865192544204003
2,19-May-2017,1,16,stim.wav,0,1,191,-4.86052380315547,1,1.0865192544204003
2,19-May-2017,1,16,stim.wav,0,2,293,2.697648836693187,1,1.0865192544204003
2,19-May-2017,1,16,stim.wav,0,3,406,-0.7644723274326465,1,1.0865192544204003
2,19-May-2017,1,16,stim.wav,0,4,533,-8.012917197565358,1,1.0865192544204003
2,19-May-2017,1,16,stim.wav,0,5,673,2.1162464231023037,1,1.0865192544204003
2,19-May-2017,1,16,stim.wav,0,6,830,0.6773120129298658,1,1.0865192544204003
2,19-May-2017,1,16,stim.wav,0,7,1004,7.623486191860508,1,1.0865192544204003
2,19-May-2017,1,16,stim.wav,0,8,1199,-0.7465655034595947,1,1.0865192544204003
2,19-May-2017,1,16,stim.wav,0,9,1416,3.4954201454442986,1,1.0865192544204003
2,19-May-2017,1,16,stim.wav,0,10,1657,2.642778156838808,1,1.0865192544204003
2,19-May-2017,1,16,stim.wav,0,11,1926,7.570050229468013,1,1.0865192544204003
2,19-May-2017,1,16,stim.wav,0,12,2226,-0.07692833017790393,1,1.0865192544204003
2,19-May-2017,1,16,stim.wav,0,13,2560,5.806762490803869,1,1.0865192544204003
2,19-May-2017,1,16,stim.wav,0,14,2932,8.09977987017808,1,1.0865192544204003
2,19-May-2017,1,16,stim.wav,0,15,3346,1.6302906152479455,1,1.0865192544204003
2,19-May-2017,1,16,stim.wav,0,16,3808,-0.9610987110255508,1,1.0865192544204003
2,19-May-2017,1,16,stim.wav,0,17,4322,-1.0871361067511895,1,1.0865192544204003
2,19-May-2017,1,16,stim.wav,0,18,4895,-6.117540056724419,1,1.0865192544204003
2,19-May-2017,1,16,stim.wav,0,19,5534,0.5351022431604223,1,1.0865192544204003
2,19-May-2017,1,16,stim.wav,0,20,6245,-0.39064104665305366,1,1.0865192544204003
2,19-May-2017,1,16,stim.wav,0,21,7037,2.3695598773467563,1,1.0865192544204003
2,19-May-2017,1,16,stim.wav,0,22,7920,5.759960211704442,1,1.0865192544204003
2,19-May-2017,1,16,stim.wav,0,23,8904,-4.229334955219741,1,1.0865192544204003
2,19-May-2017,1,16,stim.wav,0,24,10000,-2.984312878869748,1,1.0865192544204003
2,19-May-2017,1,16,stim.wav,1,0,100,4.558897329176007,0,1.0865192544204003
2,19-May-2017,1,16,stim.wav,1,1,191,-6.449173212974221,0,1.0865192544204003
2,19-May-2017,1,16,stim.wav,1,2,293,6.028331004497867,0,1.0865192544204003
2,19-May-2017,1,16,stim.wav,1,3,406,-1.974550240925391,0,1.0865192544204003
2,19-May-2017,1,16,stim.wav,1,4,533,-6.003316991349199,0,1.0865192544204003
2,19-May-2017,1,16,stim.wav,1,5,673,3.0957110461392623,0,1.0865192544204003
2,19-May-2017,1,16,stim.wav,1,6,830,8.190870369855732,0,1.0865192544204003
2,19-May-2017,1,16,stim.wav,1,7,1004,3.3955089970568726,0,1.0865192544204003
2,19-May-2017,1,16,stim.wav,1,8,1199,-0.9048068899867788,0,1.0865192544204003
2,19-May-2017,1,16,stim.wav,1,9,1416,6.342187757427339,0,1.0865192544204003
2,19-May-2017,1,16,stim.wav,1,10,1657,-1.0854007157181829,0,1.0865192544204003
2,19-May-2017,1,16,stim.wav,1,11,1926,-4.453706700971581,0,1.0865192544204003
2,19-May-2017,1,16,stim.wav,1,12,2226,0.2740723488642149,0,1.0865192544204003
2,19-May-2017,1,16,stim.wav,1,13,2560,-10.747109316559289,0,1.0865192544204003
2,19-May-2017,1,16,stim.wav,1,14,2932,7.703597439586268,0,1.0865192544204003
2,19-May-2017,1,16,stim.wav,1,15,3346,-4.715113333532633,0,1.0865192544204003
2,19-May-2017,1,16,stim.wav,1,16,3808,7.6472586748679205,0,1.0865192544204003
2,19-May-2017,1,16,stim.wav,1,17,4322,0.3901469167861107,0,1.0865192544204003
2,19-May-2017,1,16,stim.wav,1,18,4895,-0.9942471920970328,0,1.0865192544204003
2,19-May-2017,1,16,stim.wav,1,19,5534,4.7761337132499655,0,1.0865192544204003
2,19-May-2017,1,16,stim.wav,1,20,6245,0.1402223038532901,0,1.0865192544204003
2,19-May-2017,1,16,stim.wav,1,21,7037,-3.5913981132932897,0,1.0865192544204003
2,19-May-2017,1,16,stim.wav,1,22,7920,1.6475896886705945,0,1.0865192544204003
2,19-May-2017,1,16,stim.wav,1,23,8904,-3.635090666513456,0,1.0865192544204003
2,19-May-2017,1,16,stim.wav,1,24,10000,0.8081206962086223,0,1.0865192544204003
2,19-May-2017,1,17,stim.wav,0,0,100,6.970063972860247,0,1.2316797777697954
2,19-May-2017,1,17,stim.wav,0,1,191,0.2648148797907122,0,1.2316797777697954
2,19-May-2017,1,17,stim.wav,0,2,293,0.24900040198175494,0,1.2316797777697954
2,19-May-2017,1,17,stim.wav,0,3,406,-6.833309820678347,0,1.2316797777697954
2,19-May-2017,1,17,stim.wav,0,4,533,0.037861588300438606,0,1.2316797777697954
2,19-May-2017,1,17,stim.wav,0,5,673,-0.8432270417122492,0,1.2316797777697954
2,19-May-2017,1,17,stim.wav,0,6,830,-2.8671522962340634,0,1.2316797777697954
2,19-May-2017,1,17,stim.wav,0,7,1004,2.5559135459570252,0,1.2316797777697954
2,19-May-2017,1,17,stim.wav,0,8,1199,-1.3364869522731455,0,1.2316797777697954
2,19-May-2017,1,17,stim.wav,0,9,1416,-4.724194350628413,0,1.2316797777697954
2,19-May-2017,1,17,stim.wav,0,10,1657,3.2515490930807314,0,1.2316797777697954
2,19-May-2017,1,17,stim.wav,0,11,1926,-0.13829208572835433,0,1.2316797777697954
2,19-May-2017,1,17,stim.wav,0,12,2226,-2.373673969939697,0,1.2316797777697954
2,19-May-2017,1,17,stim.wav,0,13,2560,2.0998894125646386,0,1.2316797777697954
2,19-May-2017,1,17,stim.wav,0,14,2932,-2.317148314410945,0,1.2316797777697954
2,19-May-2017,1,17,stim.wav,0,15,3346,-4.45206218744215,0,1.2316797777697954
2,19-May-2017,1,17,stim.wav,0,16,3808,-6.846429242355115,0,1.2316797777697954
2,19-May-2017,1,17,stim.wav,0,17,4322,-2.4658844687491817,0,1.2316797777697954
2,19-May-2017,1,17,stim.wav,0,18,4895,3.6432073187041203,0,1.2316797777697954
2,19-May-2017,1,17,stim.wav,0,19,5534,4.215056215925812,0,1.2316797777697954
2,19-May-2017,1,17,stim.wav,0,20,6245,2.7404774168162587,0,1.2316797777697954
2,19-May-2017,1,17,stim.wav,0,21,7037,5.01776266273553,0,1.2316797777697954
2,19-May-2017,1,17,stim.wav,0,22,7920,3.476052692021131,0,1.2316797777697954
2,19-May-2017,1,17,stim.wav,0,23,8904,5.510033733123269,0,1.2316797777697954
2,19-May-2017,1,17,stim.wav,0,24,10000,-1.1414618486768044,0,1.2316797777697954
2,19-May-2017,1,17,stim.wav,1,0,100,5.011556465396428,1,1.2316797777697954
2,19-May-2017,1,17,stim.wav,1,1,191,2.0481120145139595,1,1.2316797777697954
2,19-May-2017,1,17,stim.wav,1,2,293,2.0435639707577296,1,1.2316797777697954
2,19-May-2017,1,17,stim.wav,1,3,406,-10.819019745134987,1,1.2316797777697954
2,19-May-2017,1,17,stim.wav,1,4,533,-7.739210251849242,1,1.2316797777697954
2,19-May-2017,1,17,stim.wav,1,5,673,-0.9590513511723552,1,1.2316797777697954
2,19-May-2017,1,17,stim.wav,1,6,830,-2.3220257864761837,1,1.2316797777697954
2,19-May-2017,1,17,stim.wav,1,7,1004,-7.597675083371065,1,1.2316797777697954
2,19-May-2017,1,17,stim.wav,1,8,1199,2.755098068796142,1,1.2316797777697954
2,19-May-2017,1,17,stim.wav,1,9,1416,-9.677909575150895,1,1.2316797777697954
2,19-May-2017,1,17,stim.wav,1,10,1657,-1.7337043346065553,1,1.2316797777697954
2,19-May-2017,1,17,stim.wav,1,11,1926,9.312146560334503,1,1.2316797777697954
2,19-May-2017,1,17,stim.wav,1,12,2226,-2.812928157261643,1,1.2316797777697954
2,19-May-2017,1,17,stim.wav,1,13,2560,4.54349160243582,1,1.2316797777697954
2,19-May-2017,1,17,stim.wav,1,14,2932,1.2960050446794487,1,1.2316797777697954
2,19-May-2017,1,17,stim.wav,1,15,3346,-1.4800664455377397,1,1.2316797777697954
2,19-May-2017,1,17,stim.wav,1,16,3808,4.595169020864477,1,1.2316797777697954
2,19-May-2017,1,17,stim.wav,1,17,4322,-5.918679036966765,1,1.2316797777697954
2,19-May-2017,1,17,stim.wav,1,18,4895,0.03003974238199883,1,1.2316797777697954
2,19-May-2017,1,17,stim.wav,1,19,5534,-3.1247732542592304,1,1.2316797777697954
2,19-May-2017,1,17,stim.wav,1,20,6245,-1.8473009875720203,1,1.2316797777697954
2,19-May-2017,1,17,stim.wav,1,21,7037,2.7261265816524096,1,1.2316797777697954
2,19-May-2017,1,17,stim.wav,1,22,7920,2.1074220494488656,1,1.2316797777697954
2,19-May-2017,1,17,stim.wav,1,23,8904,-2.0030233616232014,1,1.2316797777697954
2,19-May-2017,1,17,stim.wav,1,24,10000,-0.6306598794426415,1,1.2316797777697954
2,19-May-2017,1,18,stim.wav,0,0,100,7.7021220259649095,0,0.6867135690081917
2,19-May-2017,1,18,stim.wav,0,1,191,-3.4609710825805973,0,0.6867135690081917
2,19-May-2017,1,18,stim.wav,0,2,293,-1.763036575523206,0,0.6867135690081917
2,19-May-2017,1,18,stim.wav,0,3,406,-3.0332330374023,0,0.6867135690081917
2,19-May-2017,1,18,stim.wav,0,4,533,1.6746205866767094,0,0.6867135690081917
2,19-May-2017,1,18,stim.wav,0,5,673,-0.7523224872396174,0,0.6867135690081917
2,19-May-2017,1,18,stim.wav,0,6,830,3.683620886918149,0,0.6867135690081917
2,19-May-2017,1,18,stim.wav,0,7,1004,1.5211500150096269,0,0.6867135690081917
2,19-May-2017,1,18,stim.wav,0,8,1199,-4.684184582666472,0,0.6867135690081917
2,19-May-2017,1,18,stim.wav,0,9,1416,-7.748306234930023,0,0.6867135690081917
2,19-May-2017,1,18,stim.wav,0,10,1657,1.3076340219407214,0,0.6867135690081917
2,19-May-2017,1,18,stim.wav,0,11,1926,3.4364573862986396,0,0.6867135690081917
2,19-May-2017,1,18,stim.wav,0,12,2226,-4.642861557689747,0,0.6867135690081917
2,19-May-2017,1,18,stim.wav,0,13,2560,-1.9112213913720633,0,0.6867135690081917
2,19-May-2017,1,18,stim.wav,0,14,2932,-2.9840210412813875,0,0.6867135690081917
2,19-May-2017,1,18,stim.wav,0,15,3346,1.7749168725527722,0,0.6867135690081917
2,19-May-2017,1,18,stim.wav,0,16,3808,-10.469144150511474,0,0.6867135690081917
2,19-May-2017,1,18,stim.wav,0,17,4322,-3.140593429950997,0,0.6867135690081917
2,19-May-2017,1,18,stim.wav,0,18,4895,9.449826958010366,0,0.6867135690081917
2,19-May-2017,1,18,stim.wav,0,19,5534,3.1448438948480995,0,0.6867135690081917
2,19-May-2017,1,18,stim.wav,0,20,6245,4.258917253575715,0,0.6867135690081917
2,19-May-2017,1,18,stim.wav,0,21,7037,0.7214454858497277,0,0.6867135690081917
2,19-May-2017,1,18,stim.wav,0,22,7920,-4.430084832744135,0,0.6867135690081917
2,19-May-2017,1,18,stim.wav,0,23,8904,2.7421424885567998,0,0.6867135690081917
2,19-May-2017,1,18,stim.wav,0,24,10000,6.525265239557726,0,0.6867135690081917
2,19-May-2017,1,18,stim.wav,1,0,100,-7.336514209217747,1,0.6867135690081917
2,19-May-2017,1,18,stim.wav,1,1,191,-1.2505486280869458,1,0.6867135690081917
2,19-May-2017,1,18,stim.wav,1,2,293,-6.358669586081134,1,0.6867135690081917
2,19-May-2017,1,18,stim.wav,1,3,406,-3.5537953183114057,1,0.6867135690081917
2,19-May-2017,1,18,stim.wav,1,4,533,0.871942802998703,1,0.6867135690081917
2,19-May-2017,1,18,stim.wav,1,5,673,-1.8118419099461058,1,0.6867135690081917
2,19-May-2017,1,18,stim.wav,1,6,830,8.12594189558723,1,0.6867135690081917
2,19-May-2017,1,18,stim.wav,1,7,1004,1.2905982880523903,1,0.6867135690081917
2,19-May-2017,1,18,stim.wav,1,8,1199,5.59839745688702,1,0.6867135690081917
2,19-May-2017,1,18,stim.wav,1,9,1416,0.2989068812155059,1,0.6867135690081917
2,19-May-2017,1,18,stim.wav,1,10,1657,0.24126459513552173,1,0.6867135690081917
2,19-May-2017,1,18,stim.wav,1,11,1926,2.118705944724949,1,0.6867135690081917
2,19-May-2017,1,18,stim.wav,1,12,2226,1.3591392705355878,1,0.6867135690081917
2,19-May-2017,1,18,stim.wav,1,13,2560,-0.1712023404989482,1,0.6867135690081917
2,19-May-2017,1,18,stim.wav,1,14,2932,-2.028775301558912,1,0.6867135690081917
2,19-May-2017,1,18,stim.wav,1,15,3346,1.4326018119891837,1,0.6867135690081917
2,19-May-2017,1,18,stim.wav,1,16,3808,-0.5808979789633585,1,0.6867135690081917
2,19-May-2017,1,18,stim.wav,1,17,4322,-3.6976736685655807,1,0.6867135690081917
2,19-May-2017,1,18,stim.wav,1,18,4895,5.639746893510484,1,0.6867135690081917
2,19-May-2017,1,18,stim.wav,1,19,5534,9.896944590304848,1,0.6867135690081917
2,19-May-2017,1,18,stim.wav,1,20,6245,-0.9744647572337117,1,0.6867135690081917
2,19-May-2017,1,18,stim.wav,1,21,7037,1.5087495142314722,1,0.6867135690081917
2,19-May-2017,1,18,stim.wav,1,22,7920,5.13690508059745,1,0.6867135690081917
2,19-May-2017,1,18,stim.wav,1,23,8904,-1.354320750194069,1,0.6867135690081917
2,19-May-2017,1,18,stim.wav,1,24,10000,-9.475940941929716,1,0.6867135690081917
2,19-May-2017,1,19,stim.wav,0,0,100,2.781726870805522,1,1.3512783539364954
2,19-May-2017,1,19,stim.wav,0,1,191,-4.606003168377258,1,1.3512783539364954
2,19-May-2017,1,19,stim.wav,0,2,293,-0.05284031378479181,1,1.3512783539364954
2,19-May-2017,1,19,stim.wav,0,3,406,4.832195408305711,1,1.3512783539364954
2,19-May-2017,1,19,stim.wav,0,4,533,-6.404767449112388,1,1.3512783539364954
2,19-May-2017,1,19,stim.wav,0,5,673,-5.435610723662576,1,1.3512783539364954
2,19-May-2017,1,19,stim.wav,0,6,830,-8.06432188382227,1,1.3512783539364954
2,19-May-2017,1,19,stim.wav,0,7,1004,-2.1965726454769143,1,1.3512783539364954
2,19-May-2017,1,19,stim.wav,0,8,1199,-12.359159808904074,1,1.3512783539364954
2,19-May-2017,1,19,stim.wav,0,9,1416,-1.3547595058436448,1,1.3512783539364954
2,19-May-2017,1,19,stim.wav,0,10,1657,3.7963778308615757,1,1.3512783539364954
2,19-May-2017,1,19,stim.wav,0,11,1926,4.797310491334535,1,1.3512783539364954
2,19-May-2017,1,19,stim.wav,0,12,2226,5.3267768720738236,1,1.3512783539364954
2,19-May-2017,1,19,stim.wav,0,13,2560,8.541078705795723,1,1.3512783539364954
2,19-May-2017,1,19,stim.wav,0,14,2932,11.893293189963556,1,1.3512783539364954
2,19-May-2017,1,19,stim.wav,0,15,3346,7.04058094978863,1,1.3512783539364954
2,19-May-2017,1,19,stim.wav,0,16,3808,-4.099142764295442,1,1.3512783539364954
2,19-May-2017,1,19,stim.wav,0,17,4322,3.382143920497297,1,1.3512783539364954
2,19-May-2017,1,19,stim.wav,0,18,4895,2.8600636925551157,1,1.3512783539364954
2,19-May-2017,1,19,stim.wav,0,19,5534,-2.5219996155098445,1,1.3512783539364954
2,19-May-2017,1,19,stim.wav,0,20,6245,4.577676352206791,1,1.3512783539364954
2,19-May-2017,1,19,stim.wav,0,21,7037,0.9213393452417284,1,1.3512783539364954
2,19-May-2017,1,19,stim.wav,0,22,7920,9.193457555699231,1,1.3512783539364954
2,19-May-2017,1,19,stim.wav,0,23,8904,2.6177644338238797,1,1.3512783539364954
2,19-May-2017,1,19,stim.wav,0,24,10000,-5.8226389086608386,1,1.3512783539364954
2,19-May-2017,1,19,stim.wav,1,0,100,1.254271763792616,0,1.3512783539364954
2,19-May-2017,1,19,stim.wav,1,1,191,1.1587536303591697,0,1.3512783539364954
2,19-May-2017,1,19,stim.wav,1,2,293,0.060363144586627754,0,1.3512783539364954
2,19-May-2017,1,19,stim.wav,1,3,406,-0.5474156770149451,0,1.3512783539364954
2,19-May-2017,1,19,stim.wav,1,4,533,6.366594821837641,0,1.3512783539364954
2,19-May-2017,1,19,stim.wav,1,5,673,-0.23205298280366388,0,1.3512783539364954
2,19-May-2017,1,19,stim.wav,1,6,830,0.8052897870493456,0,1.3512783539364954
2,19-May-2017,1,19,stim.wav,1,7,1004,-4.615349840408534,0,1.3512783539364954
2,19-May-2017,1,19,stim.wav,1,8,1199,-4.302106315155872,0,1.3512783539364954
2,19-May-2017,1,19,stim.wav,1,9,1416,-1.9726853400583582,0,1.3512783539364954
2,19-May-2017,1,19,stim.wav,1,10,1657,5.48531784880236,0,1.3512783539364954
2,19-May-2017,1,19,stim.wav,1,11,1926,10.025221119340939,0,1.3512783539364954
2,19-May-2017,1,19,stim.wav,1,12,2226,-0.9185027500101738,0,1.3512783539364954
2,19-May-2017,1,19,stim.wav,1,13,2560,7.599338641113609,0,1.3512783539364954
2,19-May-2017,1,19,stim.wav,1,14,2932,0.11012611333017847,0,1.3512783539364954
2,19-May-2017,1,19,stim.wav,1,15,3346,2.45154782759022,0,1.3512783539364954
2,19-May-2017,1,19,stim.wav,1,16,3808,-1.1595762045705267,0,1.3512783539364954
2,19-May-2017,1,19,stim.wav,1,17,4322,1.554121306307514,0,1.3512783539364954
2,19-May-2017,1,19,stim.wav,1,18,4895,1.8622938424379578,0,1.3512783539364954
2,19-May-2017,1,19,stim.wav,1,19,5534,-0.7466525941808002,0,1.3512783539364954
2,19-May-2017,1,19,stim.wav,1,20,6245,-7.211689005309461,0,1.3512783539364954
2,19-May-2017,1,19,stim.wav,1,21,7037,-0.03121890988370134,0,1.3512783539364954
2,19-May-2017,1,19,stim.wav,1,22,7920,-7.330187177553134,0,1.3512783539364954
2,19-May-2017,1,19,stim.wav,1,23,8904,-6.569147212461903,0,1.3512783539364954
2,19-May-2017,1,19,stim.wav,1,24,10000,-3.16631699941105,0,1.3512783539364954
2,19-May-2017,1,20,stim.wav,0,0,100,7.16847681303088,1,0.9589028067852738
2,19-May-2017,1,20,stim.wav,0,1,191,-10.804743136803799,1,0.9589028067852738
2,19-May-2017,1,20,stim.wav,0,2,293,-6.826457631785373,1,0.9589028067852738
2,19-May-2017,1,20,stim.wav,0,3,406,-4.957856258551304,1,0.9589028067852738
2,19-May-2017,1,20,stim.wav,0,4,533,-6.775187610697086,1,0.9589028067852738
2,19-May-2017,1,20,stim.wav,0,5,673,5.108684169623402,1,0.9589028067852738
2,19-May-2017,1,20,stim.wav,0,6,830,2.855090649660652,1,0.9589028067852738
2,19-May-2017,1,20,stim.wav,0,7,1004,9.477563171276417,1,0.9589028067852738
2,19-May-2017,1,20,stim.wav,0,8,1199,2.84636678201674,1,0.9589028067852738
2,19-May-2017,1,20,stim.wav,0,9,1416,4.61255287943028,1,0.9589028067852738
2,19-May-2017,1,20,stim.wav,0,10,1657,-2.621402166574139,1,0.9589028067852738
2,19-May-2017,1,20,stim.wav,0,11,1926,1.8668033361936507,1,0.9589028067852738
2,19-May-2017,1,20,stim.wav,0,12,2226,-8.259031676434551,1,0.9589028067852738
2,19-May-2017,1,20,stim.wav,0,13,2560,-5.462085983803121,1,0.9589028067852738
2,19-May-2017,1,20,stim.wav,0,14,2932,-2.5890246768894114,1,0.9589028067852738
2,19-May-2017,1,20,stim.wav,0,15,3346,-4.019103862788331,1,0.9589028067852738
2,19-May-2017,1,20,stim.wav,0,16,3808,-8.298502263763242,1,0.9589028067852738
2,19-May-2017,1,20,stim.wav,0,17,4322,-1.7063704777529622,1,0.9589028067852738
2,19-May-2017,1,20,stim.wav,0,18,4895,-4.408111547367727,1,0.9589028067852738
2,19-May-2017,1,20,stim.wav,0,19,5534,9.237236471406133,1,0.9589028067852738
2,19-May-2017,1,20,stim.wav,0,20,6245,-8.39912782191591,1,0.9589028067852738
2,19-May-2017,1,20,stim.wav,0,21,7037,0.08161370264472541,1,0.9589028067852738
2,19-May-2017,1,20,stim.wav,0,22,7920,1.179587067417518,1,0.9589028067852738
2,19-May-2017,1,20,stim.wav,0,23,8904,3.3771088239048908,1,0.9589028067852738
2,19-May-2017,1,20,stim.wav,0,24,10000,-0.16920867236758436,1,0.9589028067852738
2,19-May-2017,1,20,stim.wav,1,0,100,0.38160827779722784,0,0.9589028067852738
2,19-May-2017,1,20,stim.wav,1,1,191,-2.2673043425529116,0,0.9589028067852738
2,19-May-2017,1,20,stim.wav,1,2,293,-8.12330325220527,0,0.9589028067852738
2,19-May-2017,1,20,stim.wav,1,3,406,-4.4524001741013555,0,0.9589028067852738
2,19-May-2017,1,20,stim.wav,1,4,533,6.041821536253878,0,0.9589028067852738
2,19-May-2017,1,20,stim.wav,1,5,673,1.5633623384527338,0,0.9589028067852738
2,19-May-2017,1,20,stim.wav,1,6,830,4.792264531791591,0,0.9589028067852738
2,19-May-2017,1,20,stim.wav,1,7,1004,-3.53128728146717,0,0.9589028067852738
2,19-May-2017,1,20,stim.wav,1,8,1199,-4.556652210110085,0,0.9589028067852738
2,19-May-2017,1,20,stim.wav,1,9,1416,-1.7716145144412552,0,0.9589028067852738
2,19-May-2017,1,20,stim.wav,1,10,1657,6.505070479150877,0,0.9589028067852738
2,19-May-2017,1,20,stim.wav,1,11,1926,-7.753439020753334,0,0.9589028067852738
2,19-May-2017,1,20,stim.wav,1,12,2226,-3.2519603766062803,0,0.9589028067852738
2,19-May-2017,1,20,stim.wav,1,13,2560,-3.936824826380615,0,0.9589028067852738
2,19-May-2017,1,20,stim.wav,1,14,2932,3.605899113165798,0,0.9589028067852738
2,19-May-2017,1,20,stim.wav,1,15,3346,-3.4941447149414095,0,0.9589028067852738
2,19-May-2017,1,20,stim.wav,1,16,3808,-1.1147923198957983,0,0.9589028067852738
2,19-May-2017,1,20,stim.wav,1,17,4322,2.2027997107765254,0,0.9589028067852738
2,19-May-2017,1,20,stim.wav,1,18,4895,4.310836955344338,0,0.9589028067852738
2,19-May-2017,1,20,stim.wav,1,19,5534,1.5104508671429315,0,0.9589028067852738
2,19-May-2017,1,20,stim.wav,1,20,6245,1.6465130933242018,0,0.9589028067852738
2,19-May-2017,1,20,stim.wav,1,21,7037,-10.954556128681908,0,0.9589028067852738
2,19-May-2017,1,20,stim.wav,1,22,7920,-7.756621235284787,0,0.9589028067852738
2,19-May-2017,1,20,stim.wav,1,23,8904,-9.839608895000259,0,0.9589028067852738
2,19-May-2017,1,20,stim.wav,1,24,10000,-1.3681379748985991,0,0.9589028067852738
2,19-May-2017,1,21,stim.wav,0,0,100,-1.5783626491759086,0,2.3431561410080755
2,19-May-2017,1,21,stim.wav,0,1,191,-4.512028847888719,0,2.3431561410080755
2,19-May-2017,1,21,stim.wav,0,2,293,-2.755152775126742,0,2.3431561410080755
2,19-May-2017,1,21,stim.wav,0,3,406,2.33443751579858,0,2.3431561410080755
2,19-May-2017,1,21,stim.wav,0,4,533,0.32528862650494494,0,2.3431561410080755
2,19-May-2017,1,21,stim.wav,0,5,673,-0.3431614722192582,0,2.3431561410080755
2,19-May-2017,1,21,stim.wav,0,6,830,-4.1414464766476895,0,2.3431561410080755
2,19-May-2017,1,21,stim.wav,0,7,1004,2.115086654660149,0,2.3431561410080755
2,19-May-2017,1,21,stim.wav,0,8,1199,4.7477838880983745,0,2.3431561410080755
2,19-May-2017,1,21,stim.wav,0,9,1416,5.258524445959701,0,2.3431561410080755
2,19-May-2017,1,21,stim.wav,0,10,1657,6.3948609395763505,0,2.3431561410080755
2,19-May-2017,1,21,stim.wav,0,11,1926,2.258712126267783,0,2.3431561410080755
2,19-May-2017,1,21,stim.wav,0,12,2226,-6.150731043600842,0,2.3431561410080755
2,19-May-2017,1,21,stim.wav,0,13,2560,-2.227945163049606,0,2.3431561410080755
2,19-May-2017,1,21,stim.wav,0,14,2932,0.9330674139479006,0,2.3431561410080755
2,19-May-2017,1,21,stim.wav,0,15,3346,-8.305322918716577,0,2.3431561410080755
2,19-May-2017,1,21,stim.wav,0,16,3808,1.4700233645112393,0,2.3431561410080755
2,19-May-2017,1,21,stim.wav,0,17,4322,-5.715264312885574,0,2.3431561410080755
2,19-May-2017,1,21,stim.wav,0,18,4895,-0.3634567035717705,0,2.3431561410080755
2,19-May-2017,1,21,stim.wav,0,19,5534,2.054236177836745,0,2.3431561410080755
2,19-May-2017,1,21,stim.wav,0,20,6245,-2.8379160696716004,0,2.3431561410080755
2,19-May-2017,1,21,stim.wav,0,21,7037,3.4390999517959586,0,2.3431561410080755
2,19-May-2017,1,21,stim.wav,0,22,7920,5.623590491532183,0,2.3431561410080755
2,19-May-2017,1,21,stim.wav,0,23,8904,-0.706816250203537,0,2.3431561410080755
2,19-May-2017,1,21,stim.wav,0,24,10000,4.161156410222323,0,2.3431561410080755
2,19-May-2017,1,21,stim.wav,1,0,100,-11.3237495824484,1,2.3431561410080755
2,19-May-2017,1,21,stim.wav,1,1,191,10.146032813850676,1,2.3431561410080755
2,19-May-2017,1,21,stim.wav,1,2,293,-2.644215887035371,1,2.3431561410080755
2,19-May-2017,1,21,stim.wav,1,3,406,0.7413672456383531,1,2.3431561410080755
2,19-May-2017,1,21,stim.wav,1,4,533,10.556189935666367,1,2.3431561410080755
2,19-May-2017,1,21,stim.wav,1,5,673,8.529348869083048,1,2.3431561410080755
2,19-May-2017,1,21,stim.wav,1,6,830,-8.436401535746223,1,2.3431561410080755
2,19-May-2017,1,21,stim.wav,1,7,1004,1.727541354537268,1,2.3431561410080755
2,19-May-2017,1,21,stim.wav,1,8,1199,10.62581348882004,1,2.3431561410080755
2,19-May-2017,1,21,stim.wav,1,9,1416,-2.5784865115700564,1,2.3431561410080755
2,19-May-2017,1,21,stim.wav,1,10,1657,3.0561170824210255,1,2.3431561410080755
2,19-May-2017,1,21,stim.wav,1,11,1926,-2.174303496112495,1,2.3431561410080755
2,19-May-2017,1,21,stim.wav,1,12,2226,-4.96033879867576,1,2.3431561410080755
2,19-May-2017,1,21,stim.wav,1,13,2560,3.902725069121575,1,2.3431561410080755
2,19-May-2017,1,21,stim.wav,1,14,2932,3.3129101406162005,1,2.3431561410080755
2,19-May-2017,1,21,stim.wav,1,15,3346,6.206810527342592,1,2.3431561410080755
2,19-May-2017,1,21,stim.wav,1,16,3808,4.468192234511247,1,2.3431561410080755
2,19-May-2017,1,21,stim.wav,1,17,4322,-4.062905470219313,1,2.3431561410080755
2,19-May-2017,1,21,stim.wav,1,18,4895,-5.524430053516313,1,2.3431561410080755
2,19-May-2017,1,21,stim.wav,1,19,5534,5.4225667258129215,1,2.3431561410080755
2,19-May-2017,1,21,stim.wav,1,20,6245,-5.3690646030455,1,2.3431561410080755
2,19-May-2017,1,21,stim.wav,1,21,7037,-3.9640185764013958,1,2.3431561410080755
2,19-May-2017,1,21,stim.wav,1,22,7920,2.360212828240033,1,2.3431561410080755
2,19-May-2017,1,21,stim.wav,1,23,8904,-5.165083577399692,1,2.3431561410080755
2,19-May-2017,1,21,stim.wav,1,24,10000,-3.1939919997850774,1,2.3431561410080755
2,19-May-2017,1,22,stim.wav,0,0,100,-0.3205087589080228,0,0.599426293021609
2,19-May-2017,1,22,stim.wav,0,1,191,2.297412788026337,0,0.599426293021609
2,19-May-2017,1,22,stim.wav,0,2,293,5.741518627873244,0,0.599426293021609
2,19-May-2017,1,22,stim.wav,0,3,406,-0.5912441754127034,0,0.599426293021609
2,19-May-2017,1,22,stim.wav,0,4,533,1.1786659152304693,0,0.599426293021609
2,19-May-2017,1,22,stim.wav,0,5,673,-1.8634387322624921,0,0.599426293021609
2,19-May-2017,1,22,stim.wav,0,6,830,-7.814308753271155,0,0.599426293021609
2,19-May-2017,1,22,stim.wav,0,7,1004,-4.072623451261087,0,0.599426293021609
2,19-May-2017,1,22,stim.wav,0,8,1199,0.7296036795537636,0,0.599426293021609
2,19-May-2017,1,22,stim.wav,0,9,1416,-4.304729366387746,0,0.599426293021609
2,19-May-2017,1,22,stim.wav,0,10,1657,-5.19682417411336,0,0.599426293021609
2,19-May-2017,1,22,stim.wav,0,11,1926,3.1262173700901834,0,0.599426293021609
2,19-May-2017,1,22,stim.wav,0,12,2226,2.9391749437010772,0,0.599426293021609
2,19-May-2017,1,22,stim.wav,0,13,2560,-2.5575495163508473,0,0.599426293021609
2,19-May-2017,1,22,stim.wav,0,14,2932,-7.113360945402882,0,0.599426293021609
2,19-May-2017,1,22,stim.wav,0,15,3346,5.133829567821824,0,0.599426293021609
2,19-May-2017,1,22,stim.wav,0,16,3808,-2.304816476718449,0,0.599426293021609
2,19-May-2017,1,22,stim.wav,0,17,4322,0.27662755889008755,0,0.599426293021609
2,19-May-2017,1,22,stim.wav,0,18,4895,-1.2474174848715154,0,0.599426293021609
2,19-May-2017,1,22,stim.wav,0,19,5534,-3.751367909673876,0,0.599426293021609
2,19-May-2017,1,22,stim.wav,0,20,6245,-3.2524235347978565,0,0.599426293021609
2,19-May-2017,1,22,stim.wav,0,21,7037,-5.381190241520333,0,0.599426293021609
2,19-May-2017,1,22,stim.wav,0,22,7920,-0.7349029840181172,0,0.599426293021609
2,19-May-2017,1,22,stim.wav,0,23,8904,-11.487757827231187,0,0.599426293021609
2,19-May-2017,1,22,stim.wav,0,24,10000,-2.831723470055707,0,0.599426293021609
2,19-May-2017,1,22,stim.wav,1,0,100,-2.8147312497527297,1,0.599426293021609
2,19-May-2017,1,22,stim.wav,1,1,191,-8.12921175413471,1,0.599426293021609
2,19-May-2017,1,22,stim.wav,1,2,293,2.307365386247396,1,0.599426293021609
2,19-May-2017,1,22,stim.wav,1,3,406,-0.5179059618509374,1,0.599426293021609
2,19-May-2017,1,22,stim.wav,1,4,533,-0.24766549445911987,1,0.599426293021609
2,19-May-2017,1,22,stim.wav,1,5,673,-0.031531738934047385,1,0.599426293021609
2,19-May-2017,1,22,stim.wav,1,6,830,-0.643755411621751,1,0.599426293021609
2,19-May-2017,1,22,stim.wav,1,7,1004,-1.628143690034615,1,0.599426293021609
2,19-May-2017,1,22,stim.wav,1,8,1199,-4.898976161673062,1,0.599426293021609
2,19-May-2017,1,22,stim.wav,1,9,1416,5.259039713315343,1,0.599426293021609
2,19-May-2017,1,22,stim.wav,1,10,1657,-9.398694340786127,1,0.599426293021609
2,19-May-2017,1,22,stim.wav,1,11,1926,8.533246813559382,1,0.599426293021609
2,19-May-2017,1,22,stim.wav,1,12,2226,-4.442479734064044,1,0.599426293021609
2,19-May-2017,1,22,stim.wav,1,13,2560,-2.5327342442184864,1,0.599426293021609
2,19-May-2017,1,22,stim.wav,1,14,2932,-1.5142534651814985,1,0.599426293021609
2,19-May-2017,1,22,stim.wav,1,15,3346,-0.7978176081986476,1,0.599426293021609
2,19-May-2017,1,22,stim.wav,1,16,3808,-2.125102513214872,1,0.599426293021609
2,19-May-2017,1,22,stim.wav,1,17,4322,1.6328782109106958,1,0.599426293021609
2,19-May-2017,1,22,stim.wav,1,18,4895,3.005660177826826,1,0.599426293021609
2,19-May-2017,1,22,stim.wav,1,19,5534,4.992384515847833,1,0.599426293021609
2,19-May-2017,1,22,stim.wav,1,20,6245,-1.5119994507599395,1,0.599426293021609
2,19-May-2017,1,22,stim.wav,1,21,7037,6.231365073634866,1,0.599426293021609
2,19-May-2017,1,22,stim.wav,1,22,7920,5.723962081503869,1,0.599426293021609
2,19-May-2017,1,22,stim.wav,1,23,8904,0.005211880569346772,1,0.599426293021609
2,19-May-2017,1,22,stim.wav,1,24,10000,2.8357961604201645,1,0.599426293021609
2,19-May-2017,1,23,stim.wav,0,0,100,-4.134078890520419,1,0.9185678193832222
2,19-May-2017,1,23,stim.wav,0,1,191,3.759265334329733,1,0.9185678193832222
2,19-May-2017,1,23,stim.wav,0,2,293,3.182043514595251,1,0.9185678193832222
2,19-May-2017,1,23,stim.wav,0,3,406,-0.5879193229307027,1,0.9185678193832222
2,19-May-2017,1,23,stim.wav,0,4,533,2.6380199323031044,1,0.9185678193832222
2,19-May-2017,1,23,stim.wav,0,5,673,5.094957958851812,1,0.9185678193832222
2,19-May-2017,1,23,stim.wav,0,6,830,-0.5732541075295874,1,0.9185678193832222
2,19-May-2017,1,23,stim.wav,0,7,1004,-0.14069783134260147,1,0.9185678193832222
2,19-May-2017,1,23,stim.wav,0,8,1199,6.603271481880673,1,0.9185678193832222
2,19-May-2017,1,23,stim.wav,0,9,1416,4.314911764445755,1,0.9185678193832222
2,19-May-2017,1,23,stim.wav,0,10,1657,6.382370199740222,1,0.9185678193832222
2,19-May-2017,1,23,stim.wav,0,11,1926,-0.23559273422077315,1,0.9185678193832222
2,19-May-2017,1,23,stim.wav,0,12,2226,2.044747123015807,1,0.9185678193832222
2,19-May-2017,1,23,stim.wav,0,13,2560,-5.892939922285648,1,0.9185678193832222
2,19-May-2017,1,23,stim.wav,0,14,2932,0.22287171612512835,1,0.9185678193832222
2,19-May-2017,1,23,stim.wav,0,15,3346,2.608847709463374,1,0.9185678193832222
2,19-May-2017,1,23,stim.wav,0,16,3808,-0.5281989150340105,1,0.9185678193832222
2,19-May-2017,1,23,stim.wav,0,17,4322,-3.1908136335913877,1,0.9185678193832222
2,19-May-2017,1,23,stim.wav,0,18,4895,1.9086696528546514,1,0.9185678193832222
2,19-May-2017,1,23,stim.wav,0,19,5534,-4.9934050994513255,1,0.9185678193832222
2,19-May-2017,1,23,stim.wav,0,20,6245,-2.549876742924115,1,0.9185678193832222
2,19-May-2017,1,23,stim.wav,0,21,7037,2.0754741948005457,1,0.9185678193832222
2,19-May-2017,1,23,stim.wav,0,22,7920,1.726193036670456,1,0.9185678193832222
2,19-May-2017,1,23,stim.wav,0,23,8904,7.837199044482507,1,0.9185678193832222
2,19-May-2017,1,23,stim.wav,0,24,10000,-1.2662294796758746,1,0.9185678193832222
2,19-May-2017,1,23,stim.wav,1,0,100,6.436875471088969,0,0.9185678193832222
2,19-May-2017,1,23,stim.wav,1,1,191,3.949789903539803,0,0.9185678193832222
2,19-May-2017,1,23,stim.wav,1,2,293,-2.4441909510689284,0,0.9185678193832222
2,19-May-2017,1,23,stim.wav,1,3,406,7.906587331106404,0,0.9185678193832222
2,19-May-2017,1,23,stim.wav,1,4,533,2.7282878234442682,0,0.9185678193832222
2,19-May-2017,1,23,stim.wav,1,5,673,-0.38443662667131423,0,0.9185678193832222
2,19-May-2017,1,23,stim.wav,1,6,830,2.7942045790095604,0,0.9185678193832222
2,19-May-2017,1,23,stim.wav,1,7,1004,8.747664586414913,0,0.9185678193832222
2,19-May-2017,1,23,stim.wav,1,8,1199,-3.0619770827046926,0,0.9185678193832222
2,19-May-2017,1,23,stim.wav,1,9,1416,2.3761834102145825,0,0.9185678193832222
2,19-May-2017,1,23,stim.wav,1,10,1657,5.514827229586388,0,0.9185678193832222
2,19-May-2017,1,23,stim.wav,1,11,1926,10.20867486702791,0,0.9185678193832222
2,19-May-2017,1,23,stim.wav,1,12,2226,-4.979714734597145,0,0.9185678193832222
2,19-May-2017,1,23,stim.wav,1,13,2560,-3.1632538212692523,0,0.9185678193832222
2,19-May-2017,1,23,stim.wav,1,14,2932,6.1058793006692955,0,0.9185678193832222
2,19-May-2017,1,23,stim.wav,1,15,3346,-2.1942175603022203,0,0.9185678193832222
2,19-May-2017,1,23,stim.wav,1,16,3808,3.228471040649474,0,0.9185678193832222
2,19-May-2017,1,23,stim.wav,1,17,4322,1.9740599724942736,0,0.9185678193832222
2,19-May-2017,1,23,stim.wav,1,18,4895,2.90211851223626,0,0.9185678193832222
2,19-May-2017,1,23,stim.wav,1,19,5534,1.789216216236278,0,0.9185678193832222
2,19-May-2017,1,23,stim.wav,1,20,6245,-3.6900944827355726,0,0.9185678193832222
2,19-May-2017,1,23,stim.wav,1,21,7037,2.4086216559163556,0,0.9185678193832222
2,19-May-2017,1,23,stim.wav,1,22,7920,-2.0927654609475095,0,0.9185678193832222
2,19-May-2017,1,23,stim.wav,1,23,8904,1.3784369643297298,0,0.9185678193832222
2,19-May-2017,1,23,stim.wav,1,24,10000,0.572696317389542,0,0.9185678193832222
2,19-May-2017,1,24,stim.wav,0,0,100,6.419763179628612,1,0.7900567720173309
2,19-May-2017,1,24,stim.wav,0,1,191,0.4122565903331694,1,0.7900567720173309
2,19-May-2017,1,24,stim.wav,0,2,293,0.3348657737340578,1,0.7900567720173309
2,19-May-2017,1,24,stim.wav,0,3,406,2.607064895645977,1,0.7900567720173309
2,19-May-2017,1,24,stim.wav,0,4,533,-1.9677148073603807,1,0.7900567720173309
2,19-May-2017,1,24,stim.wav,0,5,673,11.484668735141184,1,0.7900567720173309
2,19-May-2017,1,24,stim.wav,0,6,830,-3.247832277615363,1,0.7900567720173309
2,19-May-2017,1,24,stim.wav,0,7,1004,-1.8066911028096113,1,0.7900567720173309
2,19-May-2017,1,24,stim.wav,0,8,1199,0.17407847150076874,1,0.7900567720173309
2,19-May-2017,1,24,stim.wav,0,9,1416,2.923084410541128,1,0.7900567720173309
2,19-May-2017,1,24,stim.wav,0,10,1657,1.3371552731167617,1,0.7900567720173309
2,19-May-2017,1,24,stim.wav,0,11,1926,1.311152176116495,1,0.7900567720173309
2,19-May-2017,1,24,stim.wav,0,12,2226,-2.791272839104591,1,0.7900567720173309
2,19-May-2017,1,24,stim.wav,0,13,2560,-12.17099254653121,1,0.7900567720173309
2,19-May-2017,1,24,stim.wav,0,14,2932,4.744370221800017,1,0.7900567720173309
2,19-May-2017,1,24,stim.wav,0,15,3346,4.637729282584554,1,0.7900567720173309
2,19-May-2017,1,24,stim.wav,0,16,3808,-7.319861648949477,1,0.7900567720173309
2,19-May-2017,1,24,stim.wav,0,17,4322,-0.45801452979908275,1,0.7900567720173309
2,19-May-2017,1,24,stim.wav,0,18,4895,6.479940834070867,1,0.7900567720173309
2,19-May-2017,1,24,stim.wav,0,19,5534,-1.5509023378926252,1,0.7900567720173309
2,19-May-2017,1,24,stim.wav,0,20,6245,-0.3460935713788546,1,0.7900567720173309
2,19-May-2017,1,24,stim.wav,0,21,7037,5.459739873465558,1,0.7900567720173309
2,19-May-2017,1,24,stim.wav,0,22,7920,-0.375898407014639,1,0.7900567720173309
2,19-May-2017,1,24,stim.wav,0,23,8904,8.42383822775566,1,0.7900567720173309
2,19-May-2017,1,24,stim.wav,0,24,10000,-2.6659296863805744,1,0.7900567720173309
2,19-May-2017,1,24,stim.wav,1,0,100,1.2699746638200151,0,0.7900567720173309
2,19-May-2017,1,24,stim.wav,1,1,191,1.4036722178995906,0,0.7900567720173309
2,19-May-2017,1,24,stim.wav,1,2,293,2.068459036054417,0,0.7900567720173309
2,19-May-2017,1,24,stim.wav,1,3,406,0.9107650025091245,0,0.7900567720173309
2,19-May-2017,1,24,stim.wav,1,4,533,2.3931596014573078,0,0.7900567720173309
2,19-May-2017,1,24,stim.wav,1,5,673,2.303656592943224,0,0.7900567720173309
2,19-May-2017,1,24,stim.wav,1,6,830,-2.849004736427285,0,0.7900567720173309
2,19-May-2017,1,24,stim.wav,1,7,1004,-2.5088226562706977,0,0.7900567720173309
2,19-May-2017,1,24,stim.wav,1,8,1199,4.394126270469483,0,0.7900567720173309
2,19-May-2017,1,24,stim.wav,1,9,1416,2.0273860363577056,0,0.7900567720173309
2,19-May-2017,1,24,stim.wav,1,10,1657,1.2590268155849562,0,0.7900567720173309
2,19-May-2017,1,24,stim.wav,1,11,1926,1.285389589916401,0,0.7900567720173309
2,19-May-2017,1,24,stim.wav,1,12,2226,0.6886761415325603,0,0.7900567720173309
2,19-May-2017,1,24,stim.wav,1,13,2560,9.582331360197706,0,0.7900567720173309
2,19-May-2017,1,24,stim.wav,1,14,2932,-10.487851912684398,0,0.7900567720173309
2,19-May-2017,1,24,stim.wav,1,15,3346,1.530037618195243,0,0.7900567720173309
2,19-May-2017,1,24,stim.wav,1,16,3808,-4.6276163423217165,0,0.7900567720173309
2,19-May-2017,1,24,stim.wav,1,17,4322,0.5954005308121939,0,0.7900567720173309
2,19-May-2017,1,24,stim.wav,1,18,4895,-1.6613406159086788,0,0.7900567720173309
2,19-May-2017,1,24,stim.wav,1,19,5534,5.287263013836542,0,0.7900567720173309
2,19-May-2017,1,24,stim.wav,1,20,6245,-0.3044548929550204,0,0.7900567720173309
2,19-May-2017,1,24,stim.wav,1,21,7037,0.36201997062353974,0,0.7900567720173309
2,19-May-2017,1,24,stim.wav,1,22,7920,1.7890618076504752,0,0.7900567720173309
2,19-May-2017,1,24,stim.wav,1,23,8904,-1.4554185641858133,0,0.7900567720173309
2,19-May-2017,1,24,stim.wav,1,24,10000,-2.893391728088309,0,0.7900567720173309
2,19-May-2017,1,25,stim.wav,0,0,100,4.21112770861695,1,0.708912642250765
2,19-May-2017,1,25,stim.wav,0,1,191,4.237625704882804,1,0.708912642250765
2,19-May-2017,1,25,stim.wav,0,2,293,4.148728036765173,1,0.708912642250765
2,19-May-2017,1,25,stim.wav,0,3,406,0.5652860833462456,1,0.708912642250765
2,19-May-2017,1,25,stim.wav,0,4,533,-10.654358715082736,1,0.708912642250765
2,19-May-2017,1,25,stim.wav,0,5,673,6.695503001843569,1,0.708912642250765
2,19-May-2017,1,25,stim.wav,0,6,830,9.021618498482537,1,0.708912642250765
2,19-May-2017,1,25,stim.wav,0,7,1004,5.45769889477919,1,0.708912642250765
2,19-May-2017,1,25,stim.wav,0,8,1199,3.989693363221191,1,0.708912642250765
2,19-May-2017,1,25,stim.wav,0,9,1416,4.3810555683967545,1,0.708912642250765
2,19-May-2017,1,25,stim.wav,0,10,1657,6.160184406190283,1,0.708912642250765
2,19-May-2017,1,25,stim.wav,0,11,1926,6.287826291835502,1,0.708912642250765
2,19-May-2017,1,25,stim.wav,0,12,2226,-9.33725254497609,1,0.708912642250765
2,19-May-2017,1,25,stim.wav,0,13,2560,-1.8603806823078342,1,0.708912642250765
2,19-May-2017,1,25,stim.wav,0,14,2932,6.760562824589794,1,0.708912642250765
2,19-May-2017,1,25,stim.wav,0,15,3346,2.629169105428483,1,0.708912642250765
2,19-May-2017,1,25,stim.wav,0,16,3808,1.8365108600871285,1,0.708912642250765
2,19-May-2017,1,25,stim.wav,0,17,4322,-10.936297302061394,1,0.708912642250765
2,19-May-2017,1,25,stim.wav,0,18,4895,-0.7021785026466363,1,0.708912642250765
2,19-May-2017,1,25,stim.wav,0,19,5534,3.7896843410786047,1,0.708912642250765
2,19-May-2017,1,25,stim.wav,0,20,6245,1.2008833306119158,1,0.708912642250765
2,19-May-2017,1,25,stim.wav,0,21,7037,0.7397157405892575,1,0.708912642250765
2,19-May-2017,1,25,stim.wav,0,22,7920,1.5719671088470157,1,0.708912642250765
2,19-May-2017,1,25,stim.wav,0,23,8904,-2.1033751439632873,1,0.708912642250765
2,19-May-2017,1,25,stim.wav,0,24,10000,-1.5532066630400365,1,0.708912642250765
2,19-May-2017,1,25,stim.wav,1,0,100,6.9853506849256375,0,0.708912642250765
2,19-May-2017,1,25,stim.wav,1,1,191,7.731621921974163,0,0.708912642250765
2,19-May-2017,1,25,stim.wav,1,2,293,7.192941331736751,0,0.708912642250765
2,19-May-2017,1,25,stim.wav,1,3,406,-4.210522991972829,0,0.708912642250765
2,19-May-2017,1,25,stim.wav,1,4,533,-2.254663297150124,0,0.708912642250765
2,19-May-2017,1,25,stim.wav,1,5,673,-8.67198999032253,0,0.708912642250765
2,19-May-2017,1,25,stim.wav,1,6,830,6.1669479759452805,0,0.708912642250765
2,19-May-2017,1,25,stim.wav,1,7,1004,-3.0189337664553784,0,0.708912642250765
2,19-May-2017,1,25,stim.wav,1,8,1199,5.0387066285011075,0,0.708912642250765
2,19-May-2017,1,25,stim.wav,1,9,1416,-2.174906653706047,0,0.708912642250765
2,19-May-2017,1,25,stim.wav,1,10,1657,3.038572707557987,0,0.708912642250765
2,19-May-2017,1,25,stim.wav,1,11,1926,-5.252531935041524,0,0.708912642250765
2,19-May-2017,1,25,stim.wav,1,12,2226,-1.5065489672485557,0,0.708912642250765
2,19-May-2017,1,25,stim.wav,1,13,2560,3.0395219602837753,0,0.708912642250765
2,19-May-2017,1,25,stim.wav,1,14,2932,0.48774812156433556,0,0.708912642250765
2,19-May-2017,1,25,stim.wav,1,15,3346,5.073829150030859,0,0.708912642250765
2,19-May-2017,1,25,stim.wav,1,16,3808,-6.876216139289477,0,0.708912642250765
2,19-May-2017,1,25,stim.wav,1,17,4322,-8.576093875341906,0,0.708912642250765
2,19-May-2017,1,25,stim.wav,1,18,4895,1.3041709785637392,0,0.708912642250765
2,19-May-2017,1,25,stim.wav,1,19,5534,-5.818147228754411,0,0.708912642250765
2,19-May-2017,1,25,stim.wav,1,20,6245,-0.4635383018536304,0,0.708912642250765
2,19-May-2017,1,25,stim.wav,1,21,7037,9.116502648000578,0,0.708912642250765
2,19-May-2017,1,25,stim.wav,1,22,7920,-5.203146043779322,0,0.708912642250765
2,19-May-2017,1,25,stim.wav,1,23,8904,-2.0671654778005206,0,0.708912642250765
2,19-May-2017,1,25,stim.wav,1,24,10000,-5.471516614110181,0,0.708912642250765
2,19-May-2017,1,26,stim.wav,0,0,100,6.25728430455648,1,0.9109898925625065
2,19-May-2017,1,26,stim.wav,0,1,191,4.836227559531879,1,0.9109898925625065
2,19-May-2017,1,26,stim.wav,0,2,293,3.186666921709067,1,0.9109898925625065
2,19-May-2017,1,26,stim.wav,0,3,406,0.9545749746309874,1,0.9109898925625065
2,19-May-2017,1,26,stim.wav,0,4,533,-3.72155775804643,1,0.9109898925625065
2,19-May-2017,1,26,stim.wav,0,5,673,0.8942610418916226,1,0.9109898925625065
2,19-May-2017,1,26,stim.wav,0,6,830,-2.0940560623066844,1,0.9109898925625065
2,19-May-2017,1,26,stim.wav,0,7,1004,-5.023618136000053,1,0.9109898925625065
2,19-May-2017,1,26,stim.wav,0,8,1199,6.6176026451847205,1,0.9109898925625065
2,19-May-2017,1,26,stim.wav,0,9,1416,0.6346348718758703,1,0.9109898925625065
2,19-May-2017,1,26,stim.wav,0,10,1657,6.209613739718768,1,0.9109898925625065
2,19-May-2017,1,26,stim.wav,0,11,1926,0.5327821914047774,1,0.9109898925625065
2,19-May-2017,1,26,stim.wav,0,12,2226,1.5027530320500315,1,0.9109898925625065
2,19-May-2017,1,26,stim.wav,0,13,2560,3.2595624363926268,1,0.9109898925625065
2,19-May-2017,1,26,stim.wav,0,14,2932,-9.434796170242336,1,0.9109898925625065
2,19-May-2017,1,26,stim.wav,0,15,3346,-0.8099843512052054,1,0.9109898925625065
2,19-May-2017,1,26,stim.wav,0,16,3808,2.637695306267106,1,0.9109898925625065
2,19-May-2017,1,26,stim.wav,0,17,4322,-1.3041097098901713,1,0.9109898925625065
2,19-May-2017,1,26,stim.wav,0,18,4895,-3.678950652872817,1,0.9109898925625065
2,19-May-2017,1,26,stim.wav,0,19,5534,-2.8717973433344683,1,0.9109898925625065
2,19-May-2017,1,26,stim.wav,0,20,6245,2.608912934047388,1,0.9109898925625065
2,19-May-2017,1,26,stim.wav,0,21,7037,-7.0824828670680855,1,0.9109898925625065
2,19-May-2017,1,26,stim.wav,0,22,7920,-4.0750593342428285,1,0.9109898925625065
2,19-May-2017,1,26,stim.wav,0,23,8904,-3.98171774752015,1,0.9109898925625065
2,19-May-2017,1,26,stim.wav,0,24,10000,0.6986088287784236,1,0.9109898925625065
2,19-May-2017,1,26,stim.wav,1,0,100,4.710185585264352,0,0.9109898925625065
2,19-May-2017,1,26,stim.wav,1,1,191,-2.2723112569595827,0,0.9109898925625065
2,19-May-2017,1,26,stim.wav,1,2,293,-2.1912040883411383,0,0.9109898925625065
2,19-May-2017,1,26,stim.wav,1,3,406,-0.4142965980344503,0,0.9109898925625065
2,19-May-2017,1,26,stim.wav,1,4,533,2.353067928021127,0,0.9109898925625065
2,19-May-2017,1,26,stim.wav,1,5,673,-2.3205527791153417,0,0.9109898925625065
2,19-May-2017,1,26,stim.wav,1,6,830,0.5064654677029929,0,0.9109898925625065
2,19-May-2017,1,26,stim.wav,1,7,1004,3.9799248288575004,0,0.9109898925625065
2,19-May-2017,1,26,stim.wav,1,8,1199,5.4172183336188535,0,0.9109898925625065
2,19-May-2017,1,26,stim.wav,1,9,1416,-8.126793300113851,0,0.9109898925625065
2,19-May-2017,1,26,stim.wav,1,10,1657,0.22351107101166334,0,0.9109898925625065
2,19-May-2017,1,26,stim.wav,1,11,1926,-1.0535874110010437,0,0.9109898925625065
2,19-May-2017,1,26,stim.wav,1,12,2226,4.562089950109655,0,0.9109898925625065
2,19-May-2017,1,26,stim.wav,1,13,2560,4.412943321379649,0,0.9109898925625065
2,19-May-2017,1,26,stim.wav,1,14,2932,-4.020554408566643,0,0.9109898925625065
2,19-May-2017,1,26,stim.wav,1,15,3346,7.829856463795995,0,0.9109898925625065
2,19-May-2017,1,26,stim.wav,1,16,3808,-2.37542829535689,0,0.9109898925625065
2,19-May-2017,1,26,stim.wav,1,17,4322,-3.7306655935313158,0,0.9109898925625065
2,19-May-2017,1,26,stim.wav,1,18,4895,-1.1169149295861966,0,0.9109898925625065
2,19-May-2017,1,26,stim.wav,1,19,5534,-8.394559506014728,0,0.9109898925625065
2,19-May-2017,1,26,stim.wav,1,20,6245,8.135421074596094,0,0.9109898925625065
2,19-May-2017,1,26,stim.wav,1,21,7037,-9.596487922772333,0,0.9109898925625065
2,19-May-2017,1,26,stim.wav,1,22,7920,1.9432052257212291,0,0.9109898925625065
2,19-May-2017,1,26,stim.wav,1,23,8904,0.05005119243239278,0,0.9109898925625065
2,19-May-2017,1,26,stim.wav,1,24,10000,-2.207032471018429,0,0.9109898925625065
