subj,date,session,trial,stim,stim_order,filter,filter_freq,filter_gain,response,rt
3,19-May-2017,1,1,stim.wav,0,0,100,6.211393308040836,0,3.60324450625108
3,19-May-2017,1,1,stim.wav,0,1,191,4.455652664363188,0,3.60324450625108
3,19-May-2017,1,1,stim.wav,0,2,293,-3.7841879956886473,0,3.60324450625108
3,19-May-2017,1,1,stim.wav,0,3,406,3.318402603212843,0,3.60324450625108
3,19-May-2017,1,1,stim.wav,0,4,533,-1.5116720528006158,0,3.60324450625108
3,19-May-2017,1,1,stim.wav,0,5,673,1.0042764006183997,0,3.60324450625108
3,19-May-2017,1,1,stim.wav,0,6,830,4.633173398477268,0,3.60324450625108
3,19-May-2017,1,1,stim.wav,0,7,1004,-5.697986125256658,0,3.60324450625108
3,19-May-2017,1,1,stim.wav,0,8,1199,6.087800916839436,0,3.60324450625108
3,19-May-2017,1,1,stim.wav,0,9,1416,3.365129237271207,0,3.60324450625108
3,19-May-2017,1,1,stim.wav,0,10,1657,-4.194090913176346,0,3.60324450625108
3,19-May-2017,1,1,stim.wav,0,11,1926,6.262860999784323,0,3.60324450625108
3,19-May-2017,1,1,stim.wav,0,12,2226,-4.802038475986301,0,3.60324450625108
3,19-May-2017,1,1,stim.wav,0,13,2560,-0.4594096652998687,0,3.60324450625108
3,19-May-2017,1,1,stim.wav,0,14,2932,1.045743997069199,0,3.60324450625108
3,19-May-2017,1,1,stim.wav,0,15,3346,-4.390347508299879,0,3.60324450625108
3,19-May-2017,1,1,stim.wav,0,16,3808,-2.623960157635377,0,3.60324450625108
3,19-May-2017,1,1,stim.wav,0,17,4322,-9.406680564774177,0,3.60324450625108
3,19-May-2017,1,1,stim.wav,0,18,4895,-4.018865688296376,0,3.60324450625108
3,19-May-2017,1,1,stim.wav,0,19,5534,-4.271455568612176,0,3.60324450625108
3,19-May-2017,1,1,stim.wav,0,20,6245,6.328066346879945,0,3.60324450625108
3,19-May-2017,1,1,stim.wav,0,21,7037,-4.011167501147289,0,3.60324450625108
3,19-May-2017,1,1,stim.wav,0,22,7920,4.885959330886248,0,3.60324450625108
3,19-May-2017,1,1,stim.wav,0,23,8904,11.893341745443442,0,3.60324450625108
3,19-May-2017,1,1,stim.wav,0,24,10000,-4.671948866672352,0,3.60324450625108
3,19-May-2017,1,1,stim.wav,1,0,100,-2.379447608630487,1,3.60324450625108
3,19-May-2017,1,1,stim.wav,1,1,191,-1.6725257095004267,1,3.60324450625108
3,19-May-2017,1,1,stim.wav,1,2,293,5.342507221512073,1,3.60324450625108
3,19-May-2017,1,1,stim.wav,1,3,406,-9.582122135159919,1,3.60324450625108
3,19-May-2017,1,1,stim.wav,1,4,533,6.127507177959124,1,3.60324450625108
3,19-May-2017,1,1,stim.wav,1,5,673,0.6648623672158872,1,3.60324450625108
3,19-May-2017,1,1,stim.wav,1,6,830,2.6259138420403527,1,3.60324450625108
3,19-May-2017,1,1,stim.wav,1,7,1004,-4.992625480908558,1,3.60324450625108
3,19-May-2017,1,1,stim.wav,1,8,1199,-1.0768744707841895,1,3.60324450625108
3,19-May-2017,1,1,stim.wav,1,9,1416,0.8128688659044805,1,3.60324450625108
3,19-May-2017,1,1,stim.wav,1,10,1657,9.85451636026066,1,3.60324450625108
3,19-May-2017,1,1,stim.wav,1,11,1926,-8.289165219830265,1,3.60324450625108
3,19-May-2017,1,1,stim.wav,1,12,2226,-11.154404445912789,1,3.60324450625108
3,19-May-2017,1,1,stim.wav,1,13,2560,-6.831108577979393,1,3.60324450625108
3,19-May-2017,1,1,stim.wav,1,14,2932,-5.688522701699753,1,3.60324450625108
3,19-May-2017,1,1,stim.wav,1,15,3346,-6.95222638545855,1,3.60324450625108
3,19-May-2017,1,1,stim.wav,1,16,3808,3.889970778013356,1,3.60324450625108
3,19-May-2017,1,1,stim.wav,1,17,4322,-0.9524533358676167,1,3.60324450625108
3,19-May-2017,1,1,stim.wav,1,18,4895,4.445583212503947,1,3.60324450625108
3,19-May-2017,1,1,stim.wav,1,19,5534,0.1197132834869184,1,3.60324450625108
3,19-May-2017,1,1,stim.wav,1,20,6245,-1.004123089971803,1,3.60324450625108
3,19-May-2017,1,1,stim.wav,1,21,7037,-2.2509864263030117,1,3.60324450625108
3,19-May-2017,1,1,stim.wav,1,22,7920,-9.5935973096183,1,3.60324450625108
3,19-May-2017,1,1,stim.wav,1,23,8904,1.067837237756125,1,3.60324450625108
3,19-May-2017,1,1,stim.wav,1,24,10000,-10.736273530625827,1,3.60324450625108
3,19-May-2017,1,2,stim.wav,0,0,100,1.1213739002235499,1,1.0537488518163112
3,19-May-2017,1,2,stim.wav,0,1,191,-9.257638895622506,1,1.0537488518163112
3,19-May-2017,1,2,stim.wav,0,2,293,3.1801791046768852,1,1.0537488518163112
3,19-May-2017,1,2,stim.wav,0,3,406,1.7538817838711973,1,1.0537488518163112
3,19-May-2017,1,2,stim.wav,0,4,533,5.296778369620564,1,1.0537488518163112
3,19-May-2017,1,2,stim.wav,0,5,673,-9.803973676835406,1,1.0537488518163112
3,19-May-2017,1,2,stim.wav,0,6,830,2.0291782930170386,1,1.0537488518163112
3,19-May-2017,1,2,stim.wav,0,7,1004,-0.49156612762286045,1,1.0537488518163112
3,19-May-2017,1,2,stim.wav,0,8,1199,-2.2326904225560313,1,1.0537488518163112
3,19-May-2017,1,2,stim.wav,0,9,1416,-1.1632749500019852,1,1.0537488518163112
3,19-May-2017,1,2,stim.wav,0,10,1657,0.1641858535405894,1,1.0537488518163112
3,19-May-2017,1,2,stim.wav,0,11,1926,8.171333970564508,1,1.0537488518163112
3,19-May-2017,1,2,stim.wav,0,12,2226,10.870323774002529,1,1.0537488518163112
3,19-May-2017,1,2,stim.wav,0,13,2560,8.381028764153651,1,1.0537488518163112
3,19-May-2017,1,2,stim.wav,0,14,2932,-0.29353384922184494,1,1.0537488518163112
3,19-May-2017,1,2,stim.wav,0,15,3346,-0.5567165143860433,1,1.0537488518163112
3,19-May-2017,1,2,stim.wav,0,16,3808,-5.2565916332354865,1,1.0537488518163112
3,19-May-2017,1,2,stim.wav,0,17,4322,-6.5691960013092725,1,1.0537488518163112
3,19-May-2017,1,2,stim.wav,0,18,4895,-10.115158408993814,1,1.0537488518163112
3,19-May-2017,1,2,stim.wav,0,19,5534,-4.592279572564504,1,1.0537488518163112
3,19-May-2017,1,2,stim.wav,0,20,6245,-4.986303125297563,1,1.0537488518163112
3,19-May-2017,1,2,stim.wav,0,21,7037,2.6924366156706645,1,1.0537488518163112
3,19-May-2017,1,2,stim.wav,0,22,7920,0.19895428883872485,1,1.0537488518163112
3,19-May-2017,1,2,stim.wav,0,23,8904,-6.139163945752455,1,1.0537488518163112
3,19-May-2017,1,2,stim.wav,0,24,10000,-2.4874962186717924,1,1.0537488518163112
3,19-May-2017,1,2,stim.wav,1,0,100,0.11803949487112111,0,1.0537488518163112
3,19-May-2017,1,2,stim.wav,1,1,191,0.5536903469558089,0,1.0537488518163112
3,19-May-2017,1,2,stim.wav,1,2,293,-1.0627684417710441,0,1.0537488518163112
3,19-May-2017,1,2,stim.wav,1,3,406,7.224504368739243,0,1.0537488518163112
3,19-May-2017,1,2,stim.wav,1,4,533,3.4353849148064626,0,1.0537488518163112
3,19-May-2017,1,2,stim.wav,1,5,673,-0.11836719231123184,0,1.0537488518163112
3,19-May-2017,1,2,stim.wav,1,6,830,-5.828439072754135,0,1.0537488518163112
3,19-May-2017,1,2,stim.wav,1,7,1004,-4.8098130017955,0,1.0537488518163112
3,19-May-2017,1,2,stim.wav,1,8,1199,5.160467861584709,0,1.0537488518163112
3,19-May-2017,1,2,stim.wav,1,9,1416,-5.109573218832846,0,1.0537488518163112
3,19-May-2017,1,2,stim.wav,1,10,1657,-0.1793441390287651,0,1.0537488518163112
3,19-May-2017,1,2,stim.wav,1,11,1926,3.8496951915947912,0,1.0537488518163112
3,19-May-2017,1,2,stim.wav,1,12,2226,-0.6776235915787874,0,1.0537488518163112
3,19-May-2017,1,2,stim.wav,1,13,2560,6.463829197907996,0,1.0537488518163112
3,19-May-2017,1,2,stim.wav,1,14,2932,-3.971551870802617,0,1.0537488518163112
3,19-May-2017,1,2,stim.wav,1,15,3346,2.4237160280966576,0,1.0537488518163112
3,19-May-2017,1,2,stim.wav,1,16,3808,0.27106964080176055,0,1.0537488518163112
3,19-May-2017,1,2,stim.wav,1,17,4322,-1.7691439683926589,0,1.0537488518163112
3,19-May-2017,1,2,stim.wav,1,18,4895,-3.5684293534361293,0,1.0537488518163112
3,19-May-2017,1,2,stim.wav,1,19,5534,-1.7030107692927876,0,1.0537488518163112
3,19-May-2017,1,2,stim.wav,1,20,6245,1.3160839514093325,0,1.0537488518163112
3,19-May-2017,1,2,stim.wav,1,21,7037,-2.2566440712818854,0,1.0537488518163112
3,19-May-2017,1,2,stim.wav,1,22,7920,3.9300765010400953,0,1.0537488518163112
3,19-May-2017,1,2,stim.wav,1,23,8904,-5.984994673176802,0,1.0537488518163112
3,19-May-2017,1,2,stim.wav,1,24,10000,-5.183202694441977,0,1.0537488518163112
3,19-May-2017,1,3,stim.wav,0,0,100,2.6305013023871098,1,1.0285994810295251
3,19-May-2017,1,3,stim.wav,0,1,191,-1.0874467580666662,1,1.0285994810295251
3,19-May-2017,1,3,stim.wav,0,2,293,-1.280813022673797,1,1.0285994810295251
3,19-May-2017,1,3,stim.wav,0,3,406,-2.2860690681280955,1,1.0285994810295251
3,19-May-2017,1,3,stim.wav,0,4,533,-2.7183666485642846,1,1.0285994810295251
3,19-May-2017,1,3,stim.wav,0,5,673,8.149793708869899,1,1.0285994810295251
3,19-May-2017,1,3,stim.wav,0,6,830,2.811703984785664,1,1.0285994810295251
3,19-May-2017,1,3,stim.wav,0,7,1004,1.4004864068896277,1,1.0285994810295251
3,19-May-2017,1,3,stim.wav,0,8,1199,1.9803233269053222,1,1.0285994810295251
3,19-May-2017,1,3,stim.wav,0,9,1416,-3.458474901992828,1,1.0285994810295251
3,19-May-2017,1,3,stim.wav,0,10,1657,-3.171341556711409,1,1.0285994810295251
3,19-May-2017,1,3,stim.wav,0,11,1926,2.8057625787706186,1,1.0285994810295251
3,19-May-2017,1,3,stim.wav,0,12,2226,1.0351209276605644,1,1.0285994810295251
3,19-May-2017,1,3,stim.wav,0,13,2560,-3.885039167421602,1,1.0285994810295251
3,19-May-2017,1,3,stim.wav,0,14,2932,0.4133542029076704,1,1.0285994810295251
3,19-May-2017,1,3,stim.wav,0,15,3346,11.309348723183534,1,1.0285994810295251
3,19-May-2017,1,3,stim.wav,0,16,3808,3.900885227396288,1,1.0285994810295251
3,19-May-2017,1,3,stim.wav,0,17,4322,4.973052341906877,1,1.0285994810295251
3,19-May-2017,1,3,stim.wav,0,18,4895,-5.783631890406048,1,1.0285994810295251
3,19-May-2017,1,3,stim.wav,0,19,5534,-3.0802964816476415,1,1.0285994810295251
3,19-May-2017,1,3,stim.wav,0,20,6245,-9.263191038633462,1,1.0285994810295251
3,19-May-2017,1,3,stim.wav,0,21,7037,6.5962830896999725,1,1.0285994810295251
3,19-May-2017,1,3,stim.wav,0,22,7920,0.5178701808434734,1,1.0285994810295251
3,19-May-2017,1,3,stim.wav,0,23,8904,1.4889594185195685,1,1.0285994810295251
3,19-May-2017,1,3,stim.wav,0,24,10000,-1.2950799105798851,1,1.0285994810295251
3,19-May-2017,1,3,stim.wav,1,0,100,-4.290167794589854,0,1.0285994810295251
3,19-May-2017,1,3,stim.wav,1,1,191,3.9021940190520734,0,1.0285994810295251
3,19-May-2017,1,3,stim.wav,1,2,293,-3.882119463125165,0,1.0285994810295251
3,19-May-2017,1,3,stim.wav,1,3,406,6.094256507585692,0,1.0285994810295251
3,19-May-2017,1,3,stim.wav,1,4,533,0.8617286773925353,0,1.0285994810295251
3,19-May-2017,1,3,stim.wav,1,5,673,0.4913272955103823,0,1.0285994810295251
3,19-May-2017,1,3,stim.wav,1,6,830,3.415221261156307,0,1.0285994810295251
3,19-May-2017,1,3,stim.wav,1,7,1004,6.779838597385034,0,1.0285994810295251
3,19-May-2017,1,3,stim.wav,1,8,1199,-7.903606550490522,0,1.0285994810295251
3,19-May-2017,1,3,stim.wav,1,9,1416,6.701487635599072,0,1.0285994810295251
3,19-May-2017,1,3,stim.wav,1,10,1657,-3.9121003639179492,0,1.0285994810295251
3,19-May-2017,1,3,stim.wav,1,11,1926,-2.537331466095498,0,1.0285994810295251
3,19-May-2017,1,3,stim.wav,1,12,2226,-2.27250257828964,0,1.0285994810295251
3,19-May-2017,1,3,stim.wav,1,13,2560,-1.0352305243721531,0,1.0285994810295251
3,19-May-2017,1,3,stim.wav,1,14,2932,-5.992068695321576,0,1.0285994810295251
3,19-May-2017,1,3,stim.wav,1,15,3346,-6.400294139941868,0,1.0285994810295251
3,19-May-2017,1,3,stim.wav,1,16,3808,5.595986312038322,0,1.0285994810295251
3,19-May-2017,1,3,stim.wav,1,17,4322,1.0613086441979631,0,1.0285994810295251
3,19-May-2017,1,3,stim.wav,1,18,4895,2.3421378823908268,0,1.0285994810295251
3,19-May-2017,1,3,stim.wav,1,19,5534,2.01445675890087,0,1.0285994810295251
3,19-May-2017,1,3,stim.wav,1,20,6245,0.11886596232855672,0,1.0285994810295251
3,19-May-2017,1,3,stim.wav,1,21,7037,-3.385820410121248,0,1.0285994810295251
3,19-May-2017,1,3,stim.wav,1,22,7920,0.5034918212197251,0,1.0285994810295251
3,19-May-2017,1,3,stim.wav,1,23,8904,5.272630404633503,0,1.0285994810295251
3,19-May-2017,1,3,stim.wav,1,24,10000,-2.845162105967498,0,1.0285994810295251
3,19-May-2017,1,4,stim.wav,0,0,100,2.490788483934928,0,1.0558681808151975
3,19-May-2017,1,4,stim.wav,0,1,191,-4.393837864203674,0,1.0558681808151975
3,19-May-2017,1,4,stim.wav,0,2,293,-1.9314127155785275,0,1.0558681808151975
3,19-May-2017,1,4,stim.wav,0,3,406,5.387400836779105,0,1.0558681808151975
3,19-May-2017,1,4,stim.wav,0,4,533,-3.2520427282936506,0,1.0558681808151975
3,19-May-2017,1,4,stim.wav,0,5,673,-0.2148559036088175,0,1.0558681808151975
3,19-May-2017,1,4,stim.wav,0,6,830,-8.662710932977053,0,1.0558681808151975
3,19-May-2017,1,4,stim.wav,0,7,1004,-3.9672520876546633,0,1.0558681808151975
3,19-May-2017,1,4,stim.wav,0,8,1199,-5.049192991092749,0,1.0558681808151975
3,19-May-2017,1,4,stim.wav,0,9,1416,2.826480824688737,0,1.0558681808151975
3,19-May-2017,1,4,stim.wav,0,10,1657,1.285973946244905,0,1.0558681808151975
3,19-May-2017,1,4,stim.wav,0,11,1926,4.120501432661685,0,1.0558681808151975
3,19-May-2017,1,4,stim.wav,0,12,2226,-2.30309336497143,0,1.0558681808151975
3,19-May-2017,1,4,stim.wav,0,13,2560,5.728946850363998,0,1.0558681808151975
3,19-May-2017,1,4,stim.wav,0,14,2932,-2.4223100740891335,0,1.0558681808151975
3,19-May-2017,1,4,stim.wav,0,15,3346,1.378778057653304,0,1.0558681808151975
3,19-May-2017,1,4,stim.wav,0,16,3808,-1.2951586618095674,0,1.0558681808151975
3,19-May-2017,1,4,stim.wav,0,17,4322,3.8875316093792383,0,1.0558681808151975
3,19-May-2017,1,4,stim.wav,0,18,4895,-1.8863670375882027,0,1.0558681808151975
3,19-May-2017,1,4,stim.wav,0,19,5534,-1.233311880989186,0,1.0558681808151975
3,19-May-2017,1,4,stim.wav,0,20,6245,-1.881566355275396,0,1.0558681808151975
3,19-May-2017,1,4,stim.wav,0,21,7037,2.161139007635913,0,1.0558681808151975
3,19-May-2017,1,4,stim.wav,0,22,7920,5.203217790878098,0,1.0558681808151975
3,19-May-2017,1,4,stim.wav,0,23,8904,3.9503892576918154,0,1.0558681808151975
3,19-May-2017,1,4,stim.wav,0,24,10000,-0.5848362788091842,0,1.0558681808151975
3,19-May-2017,1,4,stim.wav,1,0,100,3.1574885961498116,1,1.0558681808151975
3,19-May-2017,1,4,stim.wav,1,1,191,-7.638176888749081,1,1.0558681808151975
3,19-May-2017,1,4,stim.wav,1,2,293,0.7499802778364659,1,1.0558681808151975
3,19-May-2017,1,4,stim.wav,1,3,406,0.2534632643692724,1,1.0558681808151975
3,19-May-2017,1,4,stim.wav,1,4,533,-0.9645558501414822,1,1.0558681808151975
3,19-May-2017,1,4,stim.wav,1,5,673,5.015179258275042,1,1.0558681808151975
3,19-May-2017,1,4,stim.wav,1,6,830,5.661746125315245,1,1.0558681808151975
3,19-May-2017,1,4,stim.wav,1,7,1004,3.4569950540035905,1,1.0558681808151975
3,19-May-2017,1,4,stim.wav,1,8,1199,-1.7984880911815528,1,1.0558681808151975
3,19-May-2017,1,4,stim.wav,1,9,1416,-2.73419149637576,1,1.0558681808151975
3,19-May-2017,1,4,stim.wav,1,10,1657,-11.316512190654,1,1.0558681808151975
3,19-May-2017,1,4,stim.wav,1,11,1926,0.1428512335736477,1,1.0558681808151975
3,19-May-2017,1,4,stim.wav,1,12,2226,-0.3111848925841982,1,1.0558681808151975
3,19-May-2017,1,4,stim.wav,1,13,2560,-5.5266641638822875,1,1.0558681808151975
3,19-May-2017,1,4,stim.wav,1,14,2932,-3.3439755117575105,1,1.0558681808151975
3,19-May-2017,1,4,stim.wav,1,15,3346,-2.852549109208085,1,1.0558681808151975
3,19-May-2017,1,4,stim.wav,1,16,3808,-7.85640283419074,1,1.0558681808151975
3,19-May-2017,1,4,stim.wav,1,17,4322,7.177047616594281,1,1.0558681808151975
3,19-May-2017,1,4,stim.wav,1,18,4895,-0.5787233486146373,1,1.0558681808151975
3,19-May-2017,1,4,stim.wav,1,19,5534,-3.7697232214771703,1,1.0558681808151975
3,19-May-2017,1,4,stim.wav,1,20,6245,-6.00417717678381,1,1.0558681808151975
3,19-May-2017,1,4,stim.wav,1,21,7037,-6.4042880831483355,1,1.0558681808151975
3,19-May-2017,1,4,stim.wav,1,22,7920,1.8489968230524925,1,1.0558681808151975
3,19-May-2017,1,4,stim.wav,1,23,8904,3.2854414141814785,1,1.0558681808151975
3,19-May-2017,1,4,stim.wav,1,24,10000,-0.22698010142724154,1,1.0558681808151975
3,19-May-2017,1,5,stim.wav,0,0,100,2.4877064576283705,1,0.8944016530424088
3,19-May-2017,1,5,stim.wav,0,1,191,-7.28916410050501,1,0.8944016530424088
3,19-May-2017,1,5,stim.wav,0,2,293,-3.099533906514647,1,0.8944016530424088
3,19-May-2017,1,5,stim.wav,0,3,406,-3.0370253233639994,1,0.8944016530424088
3,19-May-2017,1,5,stim.wav,0,4,533,0.5800498695683793,1,0.8944016530424088
3,19-May-2017,1,5,stim.wav,0,5,673,-2.6187817001454783,1,0.8944016530424088
3,19-May-2017,1,5,stim.wav,0,6,830,-2.3876985330952185,1,0.8944016530424088
3,19-May-2017,1,5,stim.wav,0,7,1004,-2.452835101682533,1,0.8944016530424088
3,19-May-2017,1,5,stim.wav,0,8,1199,-0.057882827180787993,1,0.8944016530424088
3,19-May-2017,1,5,stim.wav,0,9,1416,1.2325841934079378,1,0.8944016530424088
3,19-May-2017,1,5,stim.wav,0,10,1657,-2.746724541085225,1,0.8944016530424088
3,19-May-2017,1,5,stim.wav,0,11,1926,2.767701053582938,1,0.8944016530424088
3,19-May-2017,1,5,stim.wav,0,12,2226,1.2050804974225613,1,0.8944016530424088
3,19-May-2017,1,5,stim.wav,0,13,2560,2.1489095051043163,1,0.8944016530424088
3,19-May-2017,1,5,stim.wav,0,14,2932,-6.308047913150395,1,0.8944016530424088
3,19-May-2017,1,5,stim.wav,0,15,3346,-5.287242228072929,1,0.8944016530424088
3,19-May-2017,1,5,stim.wav,0,16,3808,-2.1112082918330555,1,0.8944016530424088
3,19-May-2017,1,5,stim.wav,0,17,4322,-6.594484898825449,1,0.8944016530424088
3,19-May-2017,1,5,stim.wav,0,18,4895,4.1864211211156706,1,0.8944016530424088
3,19-May-2017,1,5,stim.wav,0,19,5534,-0.36705188904392566,1,0.8944016530424088
3,19-May-2017,1,5,stim.wav,0,20,6245,-8.226817052599118,1,0.8944016530424088
3,19-May-2017,1,5,stim.wav,0,21,7037,1.4307657094008324,1,0.8944016530424088
3,19-May-2017,1,5,stim.wav,0,22,7920,1.1895849296218544,1,0.8944016530424088
3,19-May-2017,1,5,stim.wav,0,23,8904,1.8754841329180199,1,0.8944016530424088
3,19-May-2017,1,5,stim.wav,0,24,10000,8.295712359628354,1,0.8944016530424088
3,19-May-2017,1,5,stim.wav,1,0,100,1.2971881089512014,0,0.8944016530424088
3,19-May-2017,1,5,stim.wav,1,1,191,-0.9286849995173175,0,0.8944016530424088
3,19-May-2017,1,5,stim.wav,1,2,293,2.682545332912297,0,0.8944016530424088
3,19-May-2017,1,5,stim.wav,1,3,406,4.070008952743393,0,0.8944016530424088
3,19-May-2017,1,5,stim.wav,1,4,533,-3.3810288377627606,0,0.8944016530424088
3,19-May-2017,1,5,stim.wav,1,5,673,2.9421507779128335,0,0.8944016530424088
3,19-May-2017,1,5,stim.wav,1,6,830,-0.21260951042216478,0,0.8944016530424088
3,19-May-2017,1,5,stim.wav,1,7,1004,8.763187773533602,0,0.8944016530424088
3,19-May-2017,1,5,stim.wav,1,8,1199,-3.6328544294611147,0,0.8944016530424088
3,19-May-2017,1,5,stim.wav,1,9,1416,-0.04076671285848095,0,0.8944016530424088
3,19-May-2017,1,5,stim.wav,1,10,1657,-3.075294635577843,0,0.8944016530424088
3,19-May-2017,1,5,stim.wav,1,11,1926,6.749738913788894,0,0.8944016530424088
3,19-May-2017,1,5,stim.wav,1,12,2226,1.9125932282464244,0,0.8944016530424088
3,19-May-2017,1,5,stim.wav,1,13,2560,-1.0787668465717284,0,0.8944016530424088
3,19-May-2017,1,5,stim.wav,1,14,2932,-3.2319187055916823,0,0.8944016530424088
3,19-May-2017,1,5,stim.wav,1,15,3346,0.9947379878150288,0,0.8944016530424088
3,19-May-2017,1,5,stim.wav,1,16,3808,0.9966709199028668,0,0.8944016530424088
3,19-May-2017,1,5,stim.wav,1,17,4322,0.0332336052596304,0,0.8944016530424088
3,19-May-2017,1,5,stim.wav,1,18,4895,4.266358010755969,0,0.8944016530424088
3,19-May-2017,1,5,stim.wav,1,19,5534,-6.683239023536759,0,0.8944016530424088
3,19-May-2017,1,5,stim.wav,1,20,6245,-2.470995001833878,0,0.8944016530424088
3,19-May-2017,1,5,stim.wav,1,21,7037,-7.7203769556493,0,0.8944016530424088
3,19-May-2017,1,5,stim.wav,1,22,7920,10.694051570415052,0,0.8944016530424088
3,19-May-2017,1,5,stim.wav,1,23,8904,-3.7614907282711263,0,0.8944016530424088
3,19-May-2017,1,5,stim.wav,1,24,10000,7.4956594796104925,0,0.8944016530424088
3,19-May-2017,1,6,stim.wav,0,0,100,4.34404039808186,1,1.3470458537953778
3,19-May-2017,1,6,stim.wav,0,1,191,-7.775947068536611,1,1.3470458537953778
3,19-May-2017,1,6,stim.wav,0,2,293,2.2559515030838346,1,1.3470458537953778
3,19-May-2017,1,6,stim.wav,0,3,406,2.393446626650205,1,1.3470458537953778
3,19-May-2017,1,6,stim.wav,0,4,533,-2.4211239453518547,1,1.3470458537953778
3,19-May-2017,1,6,stim.wav,0,5,673,-1.126865849710392,1,1.3470458537953778
3,19-May-2017,1,6,stim.wav,0,6,830,2.85318525279189,1,1.3470458537953778
3,19-May-2017,1,6,stim.wav,0,7,1004,5.489204044702558,1,1.3470458537953778
3,19-May-2017,1,6,stim.wav,0,8,1199,3.176378474595874,1,1.3470458537953778
3,19-May-2017,1,6,stim.wav,0,9,1416,-0.4229147611631623,1,1.3470458537953778
3,19-May-2017,1,6,stim.wav,0,10,1657,-3.9234364509461974,1,1.3470458537953778
3,19-May-2017,1,6,stim.wav,0,11,1926,0.6648529568915256,1,1.3470458537953778
3,19-May-2017,1,6,stim.wav,0,12,2226,-2.5479490688982316,1,1.3470458537953778
3,19-May-2017,1,6,stim.wav,0,13,2560,-9.800286354315856,1,1.3470458537953778
3,19-May-2017,1,6,stim.wav,0,14,2932,1.6047806023437694,1,1.3470458537953778
3,19-May-2017,1,6,stim.wav,0,15,3346,-0.2990373431258286,1,1.3470458537953778
3,19-May-2017,1,6,stim.wav,0,16,3808,-5.906215778703215,1,1.3470458537953778
3,19-May-2017,1,6,stim.wav,0,17,4322,8.992834144757316,1,1.3470458537953778
3,19-May-2017,1,6,stim.wav,0,18,4895,1.7893280584285753,1,1.3470458537953778
3,19-May-2017,1,6,stim.wav,0,19,5534,-2.1961301998142995,1,1.3470458537953778
3,19-May-2017,1,6,stim.wav,0,20,6245,-0.3942148700258796,1,1.3470458537953778
3,19-May-2017,1,6,stim.wav,0,21,7037,8.268306609617035,1,1.3470458537953778
3,19-May-2017,1,6,stim.wav,0,22,7920,-1.7165348044491102,1,1.3470458537953778
3,19-May-2017,1,6,stim.wav,0,23,8904,1.0995697352058005,1,1.3470458537953778
3,19-May-2017,1,6,stim.wav,0,24,10000,5.380090456843104,1,1.3470458537953778
3,19-May-2017,1,6,stim.wav,1,0,100,0.6272431173289579,0,1.3470458537953778
3,19-May-2017,1,6,stim.wav,1,1,191,-1.4175508558341567,0,1.3470458537953778
3,19-May-2017,1,6,stim.wav,1,2,293,-2.981215682460494,0,1.3470458537953778
3,19-May-2017,1,6,stim.wav,1,3,406,0.5478024232231529,0,1.3470458537953778
3,19-May-2017,1,6,stim.wav,1,4,533,-4.603982178250537,0,1.3470458537953778
3,19-May-2017,1,6,stim.wav,1,5,673,-4.196022032836979,0,1.3470458537953778
3,19-May-2017,1,6,stim.wav,1,6,830,-0.19762803374527027,0,1.3470458537953778
3,19-May-2017,1,6,stim.wav,1,7,1004,-0.6764595948163366,0,1.3470458537953778
3,19-May-2017,1,6,stim.wav,1,8,1199,8.055431383623535,0,1.3470458537953778
3,19-May-2017,1,6,stim.wav,1,9,1416,-2.037520942289155,0,1.3470458537953778
3,19-May-2017,1,6,stim.wav,1,10,1657,-8.817565153418425,0,1.3470458537953778
3,19-May-2017,1,6,stim.wav,1,11,1926,4.833977720577224,0,1.3470458537953778
3,19-May-2017,1,6,stim.wav,1,12,2226,1.2596978652351747,0,1.3470458537953778
3,19-May-2017,1,6,stim.wav,1,13,2560,-4.0151334502306115,0,1.3470458537953778
3,19-May-2017,1,6,stim.wav,1,14,2932,0.03604084387222147,0,1.3470458537953778
3,19-May-2017,1,6,stim.wav,1,15,3346,-7.732449641282404,0,1.3470458537953778
3,19-May-2017,1,6,stim.wav,1,16,3808,-5.606764223154257,0,1.3470458537953778
3,19-May-2017,1,6,stim.wav,1,17,4322,-0.8930857202260589,0,1.3470458537953778
3,19-May-2017,1,6,stim.wav,1,18,4895,-3.267883358195779,0,1.3470458537953778
3,19-May-2017,1,6,stim.wav,1,19,5534,-1.4146790074805544,0,1.3470458537953778
3,19-May-2017,1,6,stim.wav,1,20,6245,4.45127759497578,0,1.3470458537953778
3,19-May-2017,1,6,stim.wav,1,21,7037,0.32264202421485555,0,1.3470458537953778
3,19-May-2017,1,6,stim.wav,1,22,7920,-7.448422312769562,0,1.3470458537953778
3,19-May-2017,1,6,stim.wav,1,23,8904,-1.3278610406317213,0,1.3470458537953778
3,19-May-2017,1,6,stim.wav,1,24,10000,-5.004051590249844,0,1.3470458537953778
3,19-May-2017,1,7,stim.wav,0,0,100,3.0568006290825025,1,1.446174003923923
3,19-May-2017,1,7,stim.wav,0,1,191,-3.7466472866169114,1,1.446174003923923
3,19-May-2017,1,7,stim.wav,0,2,293,0.35586814738426115,1,1.446174003923923
3,19-May-2017,1,7,stim.wav,0,3,406,0.13851636243036924,1,1.446174003923923
3,19-May-2017,1,7,stim.wav,0,4,533,1.447647879236581,1,1.446174003923923
3,19-May-2017,1,7,stim.wav,0,5,673,1.6945445801794339,1,1.446174003923923
3,19-May-2017,1,7,stim.wav,0,6,830,-4.024263749648205,1,1.446174003923923
3,19-May-2017,1,7,stim.wav,0,7,1004,-7.231460194050371,1,1.446174003923923
3,19-May-2017,1,7,stim.wav,0,8,1199,-3.574270820585461,1,1.446174003923923
3,19-May-2017,1,7,stim.wav,0,9,1416,-6.043822644584068,1,1.446174003923923
3,19-May-2017,1,7,stim.wav,0,10,1657,0.13234400397473237,1,1.446174003923923
3,19-May-2017,1,7,stim.wav,0,11,1926,1.550918573247616,1,1.446174003923923
3,19-May-2017,1,7,stim.wav,0,12,2226,1.0216391227626316,1,1.446174003923923
3,19-May-2017,1,7,stim.wav,0,13,2560,-4.59368806814684,1,1.446174003923923
3,19-May-2017,1,7,stim.wav,0,14,2932,1.3555784316345811,1,1.446174003923923
3,19-May-2017,1,7,stim.wav,0,15,3346,0.7578514862189069,1,1.446174003923923
3,19-May-2017,1,7,stim.wav,0,16,3808,4.223208898945464,1,1.446174003923923
3,19-May-2017,1,7,stim.wav,0,17,4322,1.793356166470683,1,1.446174003923923
3,19-May-2017,1,7,stim.wav,0,18,4895,-2.058321320656237,1,1.446174003923923
3,19-May-2017,1,7,stim.wav,0,19,5534,5.710807264719154,1,1.446174003923923
3,19-May-2017,1,7,stim.wav,0,20,6245,-10.526732223856163,1,1.446174003923923
3,19-May-2017,1,7,stim.wav,0,21,7037,2.534807069306104,1,1.446174003923923
3,19-May-2017,1,7,stim.wav,0,22,7920,7.681191042879773,1,1.446174003923923
3,19-May-2017,1,7,stim.wav,0,23,8904,1.76741197732729,1,1.446174003923923
3,19-May-2017,1,7,stim.wav,0,24,10000,2.303699612487084,1,1.446174003923923
3,19-May-2017,1,7,stim.wav,1,0,100,-1.5089173765589252,0,1.446174003923923
3,19-May-2017,1,7,stim.wav,1,1,191,4.384466102415871,0,1.446174003923923
3,19-May-2017,1,7,stim.wav,1,2,293,4.94108351742558,0,1.446174003923923
3,19-May-2017,1,7,stim.wav,1,3,406,1.0658201429639378,0,1.446174003923923
3,19-May-2017,1,7,stim.wav,1,4,533,-2.4656248913740617,0,1.446174003923923
3,19-May-2017,1,7,stim.wav,1,5,673,7.871086365186652,0,1.446174003923923
3,19-May-2017,1,7,stim.wav,1,6,830,-2.242151912802432,0,1.446174003923923
3,19-May-2017,1,7,stim.wav,1,7,1004,-6.701840068827536,0,1.446174003923923
3,19-May-2017,1,7,stim.wav,1,8,1199,6.617840404668929,0,1.446174003923923
3,19-May-2017,1,7,stim.wav,1,9,1416,-7.436761456003067,0,1.446174003923923
3,19-May-2017,1,7,stim.wav,1,10,1657,-1.026330719497642,0,1.446174003923923
3,19-May-2017,1,7,stim.wav,1,11,1926,1.3788205979972408,0,1.446174003923923
3,19-May-2017,1,7,stim.wav,1,12,2226,-0.41548644120341655,0,1.446174003923923
3,19-May-2017,1,7,stim.wav,1,13,2560,1.6718780804072761,0,1.446174003923923
3,19-May-2017,1,7,stim.wav,1,14,2932,4.817147799361226,0,1.446174003923923
3,19-May-2017,1,7,stim.wav,1,15,3346,1.8713388837551148,0,1.446174003923923
3,19-May-2017,1,7,stim.wav,1,16,3808,0.8603961287880207,0,1.446174003923923
3,19-May-2017,1,7,stim.wav,1,17,4322,2.886935674237903,0,1.446174003923923
3,19-May-2017,1,7,stim.wav,1,18,4895,0.2760958428727573,0,1.446174003923923
3,19-May-2017,1,7,stim.wav,1,19,5534,-1.1151714921950953,0,1.446174003923923
3,19-May-2017,1,7,stim.wav,1,20,6245,-3.9351923886522853,0,1.446174003923923
3,19-May-2017,1,7,stim.wav,1,21,7037,-8.46011368461902,0,1.446174003923923
3,19-May-2017,1,7,stim.wav,1,22,7920,4.979624346353645,0,1.446174003923923
3,19-May-2017,1,7,stim.wav,1,23,8904,2.460755432945918,0,1.446174003923923
3,19-May-2017,1,7,stim.wav,1,24,10000,1.8717622723855385,0,1.446174003923923
3,19-May-2017,1,8,stim.wav,0,0,100,3.133737820984359,0,0.8603627319673155
3,19-May-2017,1,8,stim.wav,0,1,191,-6.008165354480476,0,0.8603627319673155
3,19-May-2017,1,8,stim.wav,0,2,293,1.6889081051736512,0,0.8603627319673155
3,19-May-2017,1,8,stim.wav,0,3,406,-3.9069473427113732,0,0.8603627319673155
3,19-May-2017,1,8,stim.wav,0,4,533,3.1464589518902617,0,0.8603627319673155
3,19-May-2017,1,8,stim.wav,0,5,673,10.592213290815042,0,0.8603627319673155
3,19-May-2017,1,8,stim.wav,0,6,830,0.9440355393612891,0,0.8603627319673155
3,19-May-2017,1,8,stim.wav,0,7,1004,1.6343623895888446,0,0.8603627319673155
3,19-May-2017,1,8,stim.wav,0,8,1199,-0.14308755297565864,0,0.8603627319673155
3,19-May-2017,1,8,stim.wav,0,9,1416,-6.717843296213659,0,0.8603627319673155
3,19-May-2017,1,8,stim.wav,0,10,1657,6.374167625758929,0,0.8603627319673155
3,19-May-2017,1,8,stim.wav,0,11,1926,-2.2547443352328354,0,0.8603627319673155
3,19-May-2017,1,8,stim.wav,0,12,2226,-1.7788553463699686,0,0.8603627319673155
3,19-May-2017,1,8,stim.wav,0,13,2560,-2.529480397519266,0,0.8603627319673155
3,19-May-2017,1,8,stim.wav,0,14,2932,-7.525895527145414,0,0.8603627319673155
3,19-May-2017,1,8,stim.wav,0,15,3346,1.3275320321091946,0,0.8603627319673155
3,19-May-2017,1,8,stim.wav,0,16,3808,4.719878003531097,0,0.8603627319673155
3,19-May-2017,1,8,stim.wav,0,17,4322,-9.784383658256894,0,0.8603627319673155
3,19-May-2017,1,8,stim.wav,0,18,4895,0.6064836408027773,0,0.8603627319673155
3,19-May-2017,1,8,stim.wav,0,19,5534,0.4793600003090246,0,0.8603627319673155
3,19-May-2017,1,8,stim.wav,0,20,6245,-1.1122113981877733,0,0.8603627319673155
3,19-May-2017,1,8,stim.wav,0,21,7037,-2.5415427460527145,0,0.8603627319673155
3,19-May-2017,1,8,stim.wav,0,22,7920,-2.454294588041646,0,0.8603627319673155
3,19-May-2017,1,8,stim.wav,0,23,8904,-3.710749345753084,0,0.8603627319673155
3,19-May-2017,1,8,stim.wav,0,24,10000,-3.17422469352232,0,0.8603627319673155
3,19-May-2017,1,8,stim.wav,1,0,100,0.042520389037163486,1,0.8603627319673155
3,19-May-2017,1,8,stim.wav,1,1,191,0.8595149829524464,1,0.8603627319673155
3,19-May-2017,1,8,stim.wav,1,2,293,-3.788359559473953,1,0.8603627319673155
3,19-May-2017,1,8,stim.wav,1,3,406,-1.7108410167439878,1,0.8603627319673155
3,19-May-2017,1,8,stim.wav,1,4,533,1.9486836187521972,1,0.8603627319673155
3,19-May-2017,1,8,stim.wav,1,5,673,6.186024903409171,1,0.8603627319673155
3,19-May-2017,1,8,stim.wav,1,6,830,-1.7930923212171241,1,0.8603627319673155
3,19-May-2017,1,8,stim.wav,1,7,1004,-7.585464257369522,1,0.8603627319673155
3,19-May-2017,1,8,stim.wav,1,8,1199,-5.212858312544549,1,0.8603627319673155
3,19-May-2017,1,8,stim.wav,1,9,1416,0.06471700451719829,1,0.8603627319673155
3,19-May-2017,1,8,stim.wav,1,10,1657,3.6855624747763303,1,0.8603627319673155
3,19-May-2017,1,8,stim.wav,1,11,1926,-9.078132127281286,1,0.8603627319673155
3,19-May-2017,1,8,stim.wav,1,12,2226,1.951442056567312,1,0.8603627319673155
3,19-May-2017,1,8,stim.wav,1,13,2560,8.433620365886954,1,0.8603627319673155
3,19-May-2017,1,8,stim.wav,1,14,2932,-6.838389516291501,1,0.8603627319673155
3,19-May-2017,1,8,stim.wav,1,15,3346,-5.320543892066693,1,0.8603627319673155
3,19-May-2017,1,8,stim.wav,1,16,3808,5.112353492440489,1,0.8603627319673155
3,19-May-2017,1,8,stim.wav,1,17,4322,-3.3311211886225145,1,0.8603627319673155
3,19-May-2017,1,8,stim.wav,1,18,4895,-2.1799583548509447,1,0.8603627319673155
3,19-May-2017,1,8,stim.wav,1,19,5534,8.956169596018487,1,0.8603627319673155
3,19-May-2017,1,8,stim.wav,1,20,6245,3.997929910035846,1,0.8603627319673155
3,19-May-2017,1,8,stim.wav,1,21,7037,2.641723615274658,1,0.8603627319673155
3,19-May-2017,1,8,stim.wav,1,22,7920,-5.550100295689893,1,0.8603627319673155
3,19-May-2017,1,8,stim.wav,1,23,8904,8.922290392950016,1,0.8603627319673155
3,19-May-2017,1,8,stim.wav,1,24,10000,7.2610821582143545,1,0.8603627319673155
3,19-May-2017,1,9,stim.wav,0,0,100,-2.6593422723725473,1,1.2679112379173445
3,19-May-2017,1,9,stim.wav,0,1,191,-0.5561238275676832,1,1.2679112379173445
3,19-May-2017,1,9,stim.wav,0,2,293,1.7097786864567368,1,1.2679112379173445
3,19-May-2017,1,9,stim.wav,0,3,406,-1.3638378046346835,1,1.2679112379173445
3,19-May-2017,1,9,stim.wav,0,4,533,-1.683223745779012,1,1.2679112379173445
3,19-May-2017,1,9,stim.wav,0,5,673,-1.156052540905152,1,1.2679112379173445
3,19-May-2017,1,9,stim.wav,0,6,830,-11.476459739257866,1,1.2679112379173445
3,19-May-2017,1,9,stim.wav,0,7,1004,5.455604215119494,1,1.2679112379173445
3,19-May-2017,1,9,stim.wav,0,8,1199,-6.92492450198023,1,1.2679112379173445
3,19-May-2017,1,9,stim.wav,0,9,1416,2.762573125091614,1,1.2679112379173445
3,19-May-2017,1,9,stim.wav,0,10,1657,-2.614169429077279,1,1.2679112379173445
3,19-May-2017,1,9,stim.wav,0,11,1926,2.027424149678425,1,1.2679112379173445
3,19-May-2017,1,9,stim.wav,0,12,2226,-3.4632368570320193,1,1.2679112379173445
3,19-May-2017,1,9,stim.wav,0,13,2560,-3.9918728163114388,1,1.2679112379173445
3,19-May-2017,1,9,stim.wav,0,14,2932,5.821041534695027,1,1.2679112379173445
3,19-May-2017,1,9,stim.wav,0,15,3346,5.509854571640567,1,1.2679112379173445
3,19-May-2017,1,9,stim.wav,0,16,3808,1.8320660041819754,1,1.2679112379173445
3,19-May-2017,1,9,stim.wav,0,17,4322,-2.4942276020668683,1,1.2679112379173445
3,19-May-2017,1,9,stim.wav,0,18,4895,0.15689629099143,1,1.2679112379173445
3,19-May-2017,1,9,stim.wav,0,19,5534,-0.40675441056715667,1,1.2679112379173445
3,19-May-2017,1,9,stim.wav,0,20,6245,1.2269181355521288,1,1.2679112379173445
3,19-May-2017,1,9,stim.wav,0,21,7037,-1.1591667157666914,1,1.2679112379173445
3,19-May-2017,1,9,stim.wav,0,22,7920,6.53708271263842,1,1.2679112379173445
3,19-May-2017,1,9,stim.wav,0,23,8904,-0.43507825860026417,1,1.2679112379173445
3,19-May-2017,1,9,stim.wav,0,24,10000,-3.7225089286392326,1,1.2679112379173445
3,19-May-2017,1,9,stim.wav,1,0,100,7.02693130468642,0,1.2679112379173445
3,19-May-2017,1,9,stim.wav,1,1,191,4.231677701768874,0,1.2679112379173445
3,19-May-2017,1,9,stim.wav,1,2,293,10.167277410802187,0,1.2679112379173445
3,19-May-2017,1,9,stim.wav,1,3,406,-10.08953682646701,0,1.2679112379173445
3,19-May-2017,1,9,stim.wav,1,4,533,10.64540477184292,0,1.2679112379173445
3,19-May-2017,1,9,stim.wav,1,5,673,6.70649471262383,0,1.2679112379173445
3,19-May-2017,1,9,stim.wav,1,6,830,4.515659879452216,0,1.2679112379173445
3,19-May-2017,1,9,stim.wav,1,7,1004,9.929765410191791,0,1.2679112379173445
3,19-May-2017,1,9,stim.wav,1,8,1199,-11.148987548751887,0,1.2679112379173445
3,19-May-2017,1,9,stim.wav,1,9,1416,-2.1595997739611787,0,1.2679112379173445
3,19-May-2017,1,9,stim.wav,1,10,1657,0.10030540227296034,0,1.2679112379173445
3,19-May-2017,1,9,stim.wav,1,11,1926,-5.1079345306145685,0,1.2679112379173445
3,19-May-2017,1,9,stim.wav,1,12,2226,-11.114336141378672,0,1.2679112379173445
3,19-May-2017,1,9,stim.wav,1,13,2560,2.7658438322977554,0,1.2679112379173445
3,19-May-2017,1,9,stim.wav,1,14,2932,5.811345193321763,0,1.2679112379173445
3,19-May-2017,1,9,stim.wav,1,15,3346,-2.7893249733006757,0,1.2679112379173445
3,19-May-2017,1,9,stim.wav,1,16,3808,0.406961280109985,0,1.2679112379173445
3,19-May-2017,1,9,stim.wav,1,17,4322,-3.2291097780779627,0,1.2679112379173445
3,19-May-2017,1,9,stim.wav,1,18,4895,-6.358817572383715,0,1.2679112379173445
3,19-May-2017,1,9,stim.wav,1,19,5534,3.7785902037728514,0,1.2679112379173445
3,19-May-2017,1,9,stim.wav,1,20,6245,3.9182278688700336,0,1.2679112379173445
3,19-May-2017,1,9,stim.wav,1,21,7037,-1.7219727076103566,0,1.2679112379173445
3,19-May-2017,1,9,stim.wav,1,22,7920,-0.9117862565525098,0,1.2679112379173445
3,19-May-2017,1,9,stim.wav,1,23,8904,2.214501189172494,0,1.2679112379173445
3,19-May-2017,1,9,stim.wav,1,24,10000,-7.39461379885463,0,1.2679112379173445
3,19-May-2017,1,10,stim.wav,0,0,100,8.086663482933151,0,0.9137020863160451
3,19-May-2017,1,10,stim.wav,0,1,191,-2.8204774435431164,0,0.9137020863160451
3,19-May-2017,1,10,stim.wav,0,2,293,-1.9671655186133918,0,0.9137020863160451
3,19-May-2017,1,10,stim.wav,0,3,406,-1.229708561599751,0,0.9137020863160451
3,19-May-2017,1,10,stim.wav,0,4,533,-5.912890292842979,0,0.9137020863160451
3,19-May-2017,1,10,stim.wav,0,5,673,4.9337492678205095,0,0.9137020863160451
3,19-May-2017,1,10,stim.wav,0,6,830,-0.13599979026572548,0,0.9137020863160451
3,19-May-2017,1,10,stim.wav,0,7,1004,2.3719710046842604,0,0.9137020863160451
3,19-May-2017,1,10,stim.wav,0,8,1199,-7.345952620876446,0,0.9137020863160451
3,19-May-2017,1,10,stim.wav,0,9,1416,4.766721638049721,0,0.9137020863160451
3,19-May-2017,1,10,stim.wav,0,10,1657,7.310481261304854,0,0.9137020863160451
3,19-May-2017,1,10,stim.wav,0,11,1926,-0.433989551727041,0,0.9137020863160451
3,19-May-2017,1,10,stim.wav,0,12,2226,6.649772524287487,0,0.9137020863160451
3,19-May-2017,1,10,stim.wav,0,13,2560,-0.7455947193104308,0,0.9137020863160451
3,19-May-2017,1,10,stim.wav,0,14,2932,-5.032278815654428,0,0.9137020863160451
3,19-May-2017,1,10,stim.wav,0,15,3346,-0.11987753738265075,0,0.9137020863160451
3,19-May-2017,1,10,stim.wav,0,16,3808,0.22545728024690287,0,0.9137020863160451
3,19-May-2017,1,10,stim.wav,0,17,4322,1.6889708865946471,0,0.9137020863160451
3,19-May-2017,1,10,stim.wav,0,18,4895,4.200567657336084,0,0.9137020863160451
3,19-May-2017,1,10,stim.wav,0,19,5534,2.630572835845995,0,0.9137020863160451
3,19-May-2017,1,10,stim.wav,0,20,6245,-0.5230389414015759,0,0.9137020863160451
3,19-May-2017,1,10,stim.wav,0,21,7037,-3.1973401800787875,0,0.9137020863160451
3,19-May-2017,1,10,stim.wav,0,22,7920,1.2813978332965024,0,0.9137020863160451
3,19-May-2017,1,10,stim.wav,0,23,8904,1.1881671281029749,0,0.9137020863160451
3,19-May-2017,1,10,stim.wav,0,24,10000,-3.516710434509726,0,0.9137020863160451
3,19-May-2017,1,10,stim.wav,1,0,100,-7.4403236382814235,1,0.9137020863160451
3,19-May-2017,1,10,stim.wav,1,1,191,-4.551884372069952,1,0.9137020863160451
3,19-May-2017,1,10,stim.wav,1,2,293,-1.781311672792675,1,0.9137020863160451
3,19-May-2017,1,10,stim.wav,1,3,406,1.252548265800386,1,0.9137020863160451
3,19-May-2017,1,10,stim.wav,1,4,533,-2.9100298089284866,1,0.9137020863160451
3,19-May-2017,1,10,stim.wav,1,5,673,6.889675798738091,1,0.9137020863160451
3,19-May-2017,1,10,stim.wav,1,6,830,6.349507141649294,1,0.9137020863160451
3,19-May-2017,1,10,stim.wav,1,7,1004,-4.636311680470395,1,0.9137020863160451
3,19-May-2017,1,10,stim.wav,1,8,1199,6.359574718641275,1,0.9137020863160451
3,19-May-2017,1,10,stim.wav,1,9,1416,5.843705012986252,1,0.9137020863160451
3,19-May-2017,1,10,stim.wav,1,10,1657,-5.7114962478101505,1,0.9137020863160451
3,19-May-2017,1,10,stim.wav,1,11,1926,-2.1312048213856194,1,0.9137020863160451
3,19-May-2017,1,10,stim.wav,1,12,2226,-4.250899293479227,1,0.9137020863160451
3,19-May-2017,1,10,stim.wav,1,13,2560,-2.9077455036840156,1,0.9137020863160451
3,19-May-2017,1,10,stim.wav,1,14,2932,2.3121579794072686,1,0.9137020863160451
3,19-May-2017,1,10,stim.wav,1,15,3346,-2.2642821668558986,1,0.9137020863160451
3,19-May-2017,1,10,stim.wav,1,16,3808,-0.26076605859337293,1,0.9137020863160451
3,19-May-2017,1,10,stim.wav,1,17,4322,0.9327450052795245,1,0.9137020863160451
3,19-May-2017,1,10,stim.wav,1,18,4895,-4.287299890216949,1,0.9137020863160451
3,19-May-2017,1,10,stim.wav,1,19,5534,0.8255820016344656,1,0.9137020863160451
3,19-May-2017,1,10,stim.wav,1,20,6245,-3.0846231202114676,1,0.9137020863160451
3,19-May-2017,1,10,stim.wav,1,21,7037,-12.467057505651693,1,0.9137020863160451
3,19-May-2017,1,10,stim.wav,1,22,7920,6.468161133442971,1,0.9137020863160451
3,19-May-2017,1,10,stim.wav,1,23,8904,-3.464089340472272,1,0.9137020863160451
3,19-May-2017,1,10,stim.wav,1,24,10000,5.053202850265479,1,0.9137020863160451
3,19-May-2017,1,11,stim.wav,0,0,100,6.516348984142103,0,1.0729610224778874
3,19-May-2017,1,11,stim.wav,0,1,191,-6.307838888872361,0,1.0729610224778874
3,19-May-2017,1,11,stim.wav,0,2,293,3.4670055288144725,0,1.0729610224778874
3,19-May-2017,1,11,stim.wav,0,3,406,-4.434639215848674,0,1.0729610224778874
3,19-May-2017,1,11,stim.wav,0,4,533,5.31556625120262,0,1.0729610224778874
3,19-May-2017,1,11,stim.wav,0,5,673,3.7420678040368722,0,1.0729610224778874
3,19-May-2017,1,11,stim.wav,0,6,830,7.773273043463405,0,1.0729610224778874
3,19-May-2017,1,11,stim.wav,0,7,1004,-8.615593874660583,0,1.0729610224778874
3,19-May-2017,1,11,stim.wav,0,8,1199,1.385453160510397,0,1.0729610224778874
3,19-May-2017,1,11,stim.wav,0,9,1416,-0.5865647325080532,0,1.0729610224778874
3,19-May-2017,1,11,stim.wav,0,10,1657,7.888131428538597,0,1.0729610224778874
3,19-May-2017,1,11,stim.wav,0,11,1926,8.270369784287423,0,1.0729610224778874
3,19-May-2017,1,11,stim.wav,0,12,2226,-4.095338978601599,0,1.0729610224778874
3,19-May-2017,1,11,stim.wav,0,13,2560,-4.896698876144338,0,1.0729610224778874
3,19-May-2017,1,11,stim.wav,0,14,2932,0.14940547094180068,0,1.0729610224778874
3,19-May-2017,1,11,stim.wav,0,15,3346,3.0003477480717446,0,1.0729610224778874
3,19-May-2017,1,11,stim.wav,0,16,3808,4.714267031235815,0,1.0729610224778874
3,19-May-2017,1,11,stim.wav,0,17,4322,-4.095590507702976,0,1.0729610224778874
3,19-May-2017,1,11,stim.wav,0,18,4895,-1.670262203987568,0,1.0729610224778874
3,19-May-2017,1,11,stim.wav,0,19,5534,2.6484783291624776,0,1.0729610224778874
3,19-May-2017,1,11,stim.wav,0,20,6245,6.345376236482556,0,1.0729610224778874
3,19-May-2017,1,11,stim.wav,0,21,7037,-11.991311182386005,0,1.0729610224778874
3,19-May-2017,1,11,stim.wav,0,22,7920,2.9643097741232314,0,1.0729610224778874
3,19-May-2017,1,11,stim.wav,0,23,8904,2.2358883758018973,0,1.0729610224778874
3,19-May-2017,1,11,stim.wav,0,24,10000,-8.905475794572624,0,1.0729610224778874
3,19-May-2017,1,11,stim.wav,1,0,100,5.018781472007035,1,1.0729610224778874
3,19-May-2017,1,11,stim.wav,1,1,191,0.47456836134289415,1,1.0729610224778874
3,19-May-2017,1,11,stim.wav,1,2,293,-8.002160637272597,1,1.0729610224778874
3,19-May-2017,1,11,stim.wav,1,3,406,4.7807205516328235,1,1.0729610224778874
3,19-May-2017,1,11,stim.wav,1,4,533,1.675010557653982,1,1.0729610224778874
3,19-May-2017,1,11,stim.wav,1,5,673,1.0069635382679216,1,1.0729610224778874
3,19-May-2017,1,11,stim.wav,1,6,830,-3.7894181575485124,1,1.0729610224778874
3,19-May-2017,1,11,stim.wav,1,7,1004,1.6982741196605429,1,1.0729610224778874
3,19-May-2017,1,11,stim.wav,1,8,1199,3.255546362737189,1,1.0729610224778874
3,19-May-2017,1,11,stim.wav,1,9,1416,-2.691818155456054,1,1.0729610224778874
3,19-May-2017,1,11,stim.wav,1,10,1657,-6.215770974832226,1,1.0729610224778874
3,19-May-2017,1,11,stim.wav,1,11,1926,3.323826107273945,1,1.0729610224778874
3,19-May-2017,1,11,stim.wav,1,12,2226,-10.07888565780139,1,1.0729610224778874
3,19-May-2017,1,11,stim.wav,1,13,2560,2.179374020131814,1,1.0729610224778874
3,19-May-2017,1,11,stim.wav,1,14,2932,-6.133482316422779,1,1.0729610224778874
3,19-May-2017,1,11,stim.wav,1,15,3346,3.3867718720123214,1,1.0729610224778874
3,19-May-2017,1,11,stim.wav,1,16,3808,8.940689874089028,1,1.0729610224778874
3,19-May-2017,1,11,stim.wav,1,17,4322,0.5463653632782877,1,1.0729610224778874
3,19-May-2017,1,11,stim.wav,1,18,4895,2.544634883347372,1,1.0729610224778874
3,19-May-2017,1,11,stim.wav,1,19,5534,7.210844124820888,1,1.0729610224778874
3,19-May-2017,1,11,stim.wav,1,20,6245,6.573596959780774,1,1.0729610224778874
3,19-May-2017,1,11,stim.wav,1,21,7037,-4.027127234484667,1,1.0729610224778874
3,19-May-2017,1,11,stim.wav,1,22,7920,0.01915872019913651,1,1.0729610224778874
3,19-May-2017,1,11,stim.wav,1,23,8904,-0.20001188543218612,1,1.0729610224778874
3,19-May-2017,1,11,stim.wav,1,24,10000,8.006354826422397,1,1.0729610224778874
3,19-May-2017,1,12,stim.wav,0,0,100,-0.7008911393398641,1,0.7373568084513161
3,19-May-2017,1,12,stim.wav,0,1,191,-4.401674628106321,1,0.7373568084513161
3,19-May-2017,1,12,stim.wav,0,2,293,-4.685087786435187,1,0.7373568084513161
3,19-May-2017,1,12,stim.wav,0,3,406,-2.807984902677598,1,0.7373568084513161
3,19-May-2017,1,12,stim.wav,0,4,533,5.060981703240998,1,0.7373568084513161
3,19-May-2017,1,12,stim.wav,0,5,673,5.769961532579945,1,0.7373568084513161
3,19-May-2017,1,12,stim.wav,0,6,830,1.142587403513957,1,0.7373568084513161
3,19-May-2017,1,12,stim.wav,0,7,1004,-5.307836563647081,1,0.7373568084513161
3,19-May-2017,1,12,stim.wav,0,8,1199,-3.475773248557026,1,0.7373568084513161
3,19-May-2017,1,12,stim.wav,0,9,1416,-1.6004292837328893,1,0.7373568084513161
3,19-May-2017,1,12,stim.wav,0,10,1657,10.538331991018131,1,0.7373568084513161
3,19-May-2017,1,12,stim.wav,0,11,1926,-3.646044942925337,1,0.7373568084513161
3,19-May-2017,1,12,stim.wav,0,12,2226,2.194309060169583,1,0.7373568084513161
3,19-May-2017,1,12,stim.wav,0,13,2560,3.0718855640546194,1,0.7373568084513161
3,19-May-2017,1,12,stim.wav,0,14,2932,0.38019338019039517,1,0.7373568084513161
3,19-May-2017,1,12,stim.wav,0,15,3346,-3.551364063724314,1,0.7373568084513161
3,19-May-2017,1,12,stim.wav,0,16,3808,0.5955173118372737,1,0.7373568084513161
3,19-May-2017,1,12,stim.wav,0,17,4322,-0.23298548898098592,1,0.7373568084513161
3,19-May-2017,1,12,stim.wav,0,18,4895,1.088555182785456,1,0.7373568084513161
3,19-May-2017,1,12,stim.wav,0,19,5534,0.3123757156143409,1,0.7373568084513161
3,19-May-2017,1,12,stim.wav,0,20,6245,-2.342448238519243,1,0.7373568084513161
3,19-May-2017,1,12,stim.wav,0,21,7037,3.4749247573421496,1,0.7373568084513161
3,19-May-2017,1,12,stim.wav,0,22,7920,-2.1754202979444117,1,0.7373568084513161
3,19-May-2017,1,12,stim.wav,0,23,8904,-3.8743790691691427,1,0.7373568084513161
3,19-May-2017,1,12,stim.wav,0,24,10000,7.416358250767024,1,0.7373568084513161
3,19-May-2017,1,12,stim.wav,1,0,100,7.201521136407473,0,0.7373568084513161
3,19-May-2017,1,12,stim.wav,1,1,191,4.526655275365589,0,0.7373568084513161
3,19-May-2017,1,12,stim.wav,1,2,293,-0.8997178595278493,0,0.7373568084513161
3,19-May-2017,1,12,stim.wav,1,3,406,4.2924081667626215,0,0.7373568084513161
3,19-May-2017,1,12,stim.wav,1,4,533,1.5867530879592615,0,0.7373568084513161
3,19-May-2017,1,12,stim.wav,1,5,673,-4.323756707344725,0,0.7373568084513161
3,19-May-2017,1,12,stim.wav,1,6,830,-1.3563218114304076,0,0.7373568084513161
3,19-May-2017,1,12,stim.wav,1,7,1004,0.12402998987876167,0,0.7373568084513161
3,19-May-2017,1,12,stim.wav,1,8,1199,1.4133157018846019,0,0.7373568084513161
3,19-May-2017,1,12,stim.wav,1,9,1416,1.5157037162933948,0,0.7373568084513161
3,19-May-2017,1,12,stim.wav,1,10,1657,1.1433444342006351,0,0.7373568084513161
3,19-May-2017,1,12,stim.wav,1,11,1926,-8.658120365985662,0,0.7373568084513161
3,19-May-2017,1,12,stim.wav,1,12,2226,-0.9228691206276153,0,0.7373568084513161
3,19-May-2017,1,12,stim.wav,1,13,2560,-5.59703622027134,0,0.7373568084513161
3,19-May-2017,1,12,stim.wav,1,14,2932,7.179856270378938,0,0.7373568084513161
3,19-May-2017,1,12,stim.wav,1,15,3346,2.7802071493159763,0,0.7373568084513161
3,19-May-2017,1,12,stim.wav,1,16,3808,-11.445484422278927,0,0.7373568084513161
3,19-May-2017,1,12,stim.wav,1,17,4322,-1.3179244808241888,0,0.7373568084513161
3,19-May-2017,1,12,stim.wav,1,18,4895,2.3176601156203085,0,0.7373568084513161
3,19-May-2017,1,12,stim.wav,1,19,5534,-4.77224007360488,0,0.7373568084513161
3,19-May-2017,1,12,stim.wav,1,20,6245,-1.1204116885957613,0,0.7373568084513161
3,19-May-2017,1,12,stim.wav,1,21,7037,-0.751908366162912,0,0.7373568084513161
3,19-May-2017,1,12,stim.wav,1,22,7920,-4.010247703686943,0,0.7373568084513161
3,19-May-2017,1,12,stim.wav,1,23,8904,5.180007642441574,0,0.7373568084513161
3,19-May-2017,1,12,stim.wav,1,24,10000,-5.956229235427167,0,0.7373568084513161
3,19-May-2017,1,13,stim.wav,0,0,100,2.7735997885342467,0,0.773747346562462
3,19-May-2017,1,13,stim.wav,0,1,191,-5.333461976297417,0,0.773747346562462
3,19-May-2017,1,13,stim.wav,0,2,293,0.8176633918198718,0,0.773747346562462
3,19-May-2017,1,13,stim.wav,0,3,406,11.35177226282586,0,0.773747346562462
3,19-May-2017,1,13,stim.wav,0,4,533,7.221607698764729,0,0.773747346562462
3,19-May-2017,1,13,stim.wav,0,5,673,-6.161278887148882,0,0.773747346562462
3,19-May-2017,1,13,stim.wav,0,6,830,1.9666279892754093,0,0.773747346562462
3,19-May-2017,1,13,stim.wav,0,7,1004,0.899163003119952,0,0.773747346562462
3,19-May-2017,1,13,stim.wav,0,8,1199,-1.737757660293382,0,0.773747346562462
3,19-May-2017,1,13,stim.wav,0,9,1416,-2.50010399000203,0,0.773747346562462
3,19-May-2017,1,13,stim.wav,0,10,1657,5.7056196470827825,0,0.773747346562462
3,19-May-2017,1,13,stim.wav,0,11,1926,4.030598079100515,0,0.773747346562462
3,19-May-2017,1,13,stim.wav,0,12,2226,-6.571150531795324,0,0.773747346562462
3,19-May-2017,1,13,stim.wav,0,13,2560,-6.3764339632946045,0,0.773747346562462
3,19-May-2017,1,13,stim.wav,0,14,2932,1.8250731760116343,0,0.773747346562462
3,19-May-2017,1,13,stim.wav,0,15,3346,8.813596917094639,0,0.773747346562462
3,19-May-2017,1,13,stim.wav,0,16,3808,-4.897065768126606,0,0.773747346562462
3,19-May-2017,1,13,stim.wav,0,17,4322,-7.456289493361835,0,0.773747346562462
3,19-May-2017,1,13,stim.wav,0,18,4895,-2.2411221972163915,0,0.773747346562462
3,19-May-2017,1,13,stim.wav,0,19,5534,6.131074663413467,0,0.773747346562462
3,19-May-2017,1,13,stim.wav,0,20,6245,1.1809567228382825,0,0.773747346562462
3,19-May-2017,1,13,stim.wav,0,21,7037,5.245744763252737,0,0.773747346562462
3,19-May-2017,1,13,stim.wav,0,22,7920,3.137107599448035,0,0.773747346562462
3,19-May-2017,1,13,stim.wav,0,23,8904,-1.766755138492715,0,0.773747346562462
3,19-May-2017,1,13,stim.wav,0,24,10000,5.800592220486161,0,0.773747346562462
3,19-May-2017,1,13,stim.wav,1,0,100,-0.935769245417764,1,0.773747346562462
3,19-May-2017,1,13,stim.wav,1,1,191,5.100721617851233,1,0.773747346562462
3,19-May-2017,1,13,stim.wav,1,2,293,1.073553072257618,1,0.773747346562462
3,19-May-2017,1,13,stim.wav,1,3,406,-1.3313608096759433,1,0.773747346562462
3,19-May-2017,1,13,stim.wav,1,4,533,-4.625610116118733,1,0.773747346562462
3,19-May-2017,1,13,stim.wav,1,5,673,1.1271333994907982,1,0.773747346562462
3,19-May-2017,1,13,stim.wav,1,6,830,8.173694930609319,1,0.773747346562462
3,19-May-2017,1,13,stim.wav,1,7,1004,-10.524859561073326,1,0.773747346562462
3,19-May-2017,1,13,stim.wav,1,8,1199,1.3341455286537567,1,0.773747346562462
3,19-May-2017,1,13,stim.wav,1,9,1416,1.9370774350684985,1,0.773747346562462
3,19-May-2017,1,13,stim.wav,1,10,1657,-2.7576147126944237,1,0.773747346562462
3,19-May-2017,1,13,stim.wav,1,11,1926,0.6847463669095548,1,0.773747346562462
3,19-May-2017,1,13,stim.wav,1,12,2226,-2.438797823399239,1,0.773747346562462
3,19-May-2017,1,13,stim.wav,1,13,2560,-4.044593240176625,1,0.773747346562462
3,19-May-2017,1,13,stim.wav,1,14,2932,1.0480633372758579,1,0.773747346562462
3,19-May-2017,1,13,stim.wav,1,15,3346,-0.38326770301777624,1,0.773747346562462
3,19-May-2017,1,13,stim.wav,1,16,3808,4.961412832467232,1,0.773747346562462
3,19-May-2017,1,13,stim.wav,1,17,4322,1.2632808549558487,1,0.773747346562462
3,19-May-2017,1,13,stim.wav,1,18,4895,-3.8488632852460563,1,0.773747346562462
3,19-May-2017,1,13,stim.wav,1,19,5534,4.703689701928756,1,0.773747346562462
3,19-May-2017,1,13,stim.wav,1,20,6245,2.076979261225885,1,0.773747346562462
3,19-May-2017,1,13,stim.wav,1,21,7037,3.320816758858623,1,0.773747346562462
3,19-May-2017,1,13,stim.wav,1,22,7920,-0.9453291707083816,1,0.773747346562462
3,19-May-2017,1,13,stim.wav,1,23,8904,5.789346042902439,1,0.773747346562462
3,19-May-2017,1,13,stim.wav,1,24,10000,4.80659947134898,1,0.773747346562462
3,19-May-2017,1,14,stim.wav,0,0,100,-11.667139862830586,1,0.9388620623004041
3,19-May-2017,1,14,stim.wav,0,1,191,-1.2745598591010165,1,0.9388620623004041
3,19-May-2017,1,14,stim.wav,0,2,293,4.58153931850577,1,0.9388620623004041
3,19-May-2017,1,14,stim.wav,0,3,406,-3.0752629003930427,1,0.9388620623004041
3,19-May-2017,1,14,stim.wav,0,4,533,6.589928329330704,1,0.9388620623004041
3,19-May-2017,1,14,stim.wav,0,5,673,8.37332598975742,1,0.9388620623004041
3,19-May-2017,1,14,stim.wav,0,6,830,-2.465371639421981,1,0.9388620623004041
3,19-May-2017,1,14,stim.wav,0,7,1004,3.1317650721911594,1,0.9388620623004041
3,19-May-2017,1,14,stim.wav,0,8,1199,-5.127081632205658,1,0.9388620623004041
3,19-May-2017,1,14,stim.wav,0,9,1416,4.241415320227183,1,0.9388620623004041
3,19-May-2017,1,14,stim.wav,0,10,1657,-3.8701177359643357,1,0.9388620623004041
3,19-May-2017,1,14,stim.wav,0,11,1926,-5.602198792774655,1,0.9388620623004041
3,19-May-2017,1,14,stim.wav,0,12,2226,-0.8195005197427135,1,0.9388620623004041
3,19-May-2017,1,14,stim.wav,0,13,2560,-7.29684352634451,1,0.9388620623004041
3,19-May-2017,1,14,stim.wav,0,14,2932,-7.778897636054518,1,0.9388620623004041
3,19-May-2017,1,14,stim.wav,0,15,3346,-0.9090672609696294,1,0.9388620623004041
3,19-May-2017,1,14,stim.wav,0,16,3808,-11.12171264965129,1,0.9388620623004041
3,19-May-2017,1,14,stim.wav,0,17,4322,3.488381259156988,1,0.9388620623004041
3,19-May-2017,1,14,stim.wav,0,18,4895,1.057027924023032,1,0.9388620623004041
3,19-May-2017,1,14,stim.wav,0,19,5534,-3.3297492363227295,1,0.9388620623004041
3,19-May-2017,1,14,stim.wav,0,20,6245,2.8162876460207427,1,0.9388620623004041
3,19-May-2017,1,14,stim.wav,0,21,7037,2.2754176274630127,1,0.9388620623004041
3,19-May-2017,1,14,stim.wav,0,22,7920,-3.6607550281844743,1,0.9388620623004041
3,19-May-2017,1,14,stim.wav,0,23,8904,-3.6586446449934664,1,0.9388620623004041
3,19-May-2017,1,14,stim.wav,0,24,10000,-1.0536681957844405,1,0.9388620623004041
3,19-May-2017,1,14,stim.wav,1,0,100,2.9857585929164387,0,0.9388620623004041
3,19-May-2017,1,14,stim.wav,1,1,191,4.634747939247906,0,0.9388620623004041
3,19-May-2017,1,14,stim.wav,1,2,293,-3.1337384145863254,0,0.9388620623004041
3,19-May-2017,1,14,stim.wav,1,3,406,-7.965991270871543,0,0.9388620623004041
3,19-May-2017,1,14,stim.wav,1,4,533,0.07949619992080031,0,0.9388620623004041
3,19-May-2017,1,14,stim.wav,1,5,673,-3.0113361284903144,0,0.9388620623004041
3,19-May-2017,1,14,stim.wav,1,6,830,6.540436867101837,0,0.9388620623004041
3,19-May-2017,1,14,stim.wav,1,7,1004,3.4551446484906423,0,0.9388620623004041
3,19-May-2017,1,14,stim.wav,1,8,1199,-1.5372429316845218,0,0.9388620623004041
3,19-May-2017,1,14,stim.wav,1,9,1416,-4.805123322439706,0,0.9388620623004041
3,19-May-2017,1,14,stim.wav,1,10,1657,-4.748337048490034,0,0.9388620623004041
3,19-May-2017,1,14,stim.wav,1,11,1926,3.2079980809992845,0,0.9388620623004041
3,19-May-2017,1,14,stim.wav,1,12,2226,-11.00348035592168,0,0.9388620623004041
3,19-May-2017,1,14,stim.wav,1,13,2560,1.9926978232468802,0,0.9388620623004041
3,19-May-2017,1,14,stim.wav,1,14,2932,-8.798697655256909,0,0.9388620623004041
3,19-May-2017,1,14,stim.wav,1,15,3346,-1.0644263288567315,0,0.9388620623004041
3,19-May-2017,1,14,stim.wav,1,16,3808,-1.9931634227024342,0,0.9388620623004041
3,19-May-2017,1,14,stim.wav,1,17,4322,0.7279786564919453,0,0.9388620623004041
3,19-May-2017,1,14,stim.wav,1,18,4895,-0.6827940700013491,0,0.9388620623004041
3,19-May-2017,1,14,stim.wav,1,19,5534,12.154362151275755,0,0.9388620623004041
3,19-May-2017,1,14,stim.wav,1,20,6245,3.6672718739350514,0,0.9388620623004041
3,19-May-2017,1,14,stim.wav,1,21,7037,-8.101965040180168,0,0.9388620623004041
3,19-May-2017,1,14,stim.wav,1,22,7920,-1.570661913778542,0,0.9388620623004041
3,19-May-2017,1,14,stim.wav,1,23,8904,4.949307295818405,0,0.9388620623004041
3,19-May-2017,1,14,stim.wav,1,24,10000,9.940696923303005,0,0.9388620623004041
3,19-May-2017,1,15,stim.wav,0,0,100,3.2218399311685553,1,1.0099849645666665
3,19-May-2017,1,15,stim.wav,0,1,191,-3.462662695979173,1,1.0099849645666665
3,19-May-2017,1,15,stim.wav,0,2,293,0.8115956709955037,1,1.0099849645666665
3,19-May-2017,1,15,stim.wav,0,3,406,-4.32399028732032,1,1.0099849645666665
3,19-May-2017,1,15,stim.wav,0,4,533,8.313036716745279,1,1.0099849645666665
3,19-May-2017,1,15,stim.wav,0,5,673,-0.19116146210788,1,1.0099849645666665
3,19-May-2017,1,15,stim.wav,0,6,830,-2.535407957145467,1,1.0099849645666665
3,19-May-2017,1,15,stim.wav,0,7,1004,2.2945071059277606,1,1.0099849645666665
3,19-May-2017,1,15,stim.wav,0,8,1199,3.8792061016035575,1,1.0099849645666665
3,19-May-2017,1,15,stim.wav,0,9,1416,-7.500815459616873,1,1.0099849645666665
3,19-May-2017,1,15,stim.wav,0,10,1657,1.1383620205909137,1,1.0099849645666665
3,19-May-2017,1,15,stim.wav,0,11,1926,2.263692490163671,1,1.0099849645666665
3,19-May-2017,1,15,stim.wav,0,12,2226,1.2489427522441194,1,1.0099849645666665
3,19-May-2017,1,15,stim.wav,0,13,2560,2.2815365546857254,1,1.0099849645666665
3,19-May-2017,1,15,stim.wav,0,14,2932,5.793925337794238,1,1.0099849645666665
3,19-May-2017,1,15,stim.wav,0,15,3346,2.540979391072544,1,1.0099849645666665
3,19-May-2017,1,15,stim.wav,0,16,3808,-2.3861790259703755,1,1.0099849645666665
3,19-May-2017,1,15,stim.wav,0,17,4322,-4.162821986520939,1,1.0099849645666665
3,19-May-2017,1,15,stim.wav,0,18,4895,-0.18349194863558665,1,1.0099849645666665
3,19-May-2017,1,15,stim.wav,0,19,5534,5.604942772286872,1,1.0099849645666665
3,19-May-2017,1,15,stim.wav,0,20,6245,6.958288581877138,1,1.0099849645666665
3,19-May-2017,1,15,stim.wav,0,21,7037,3.0803083097277772,1,1.0099849645666665
3,19-May-2017,1,15,stim.wav,0,22,7920,4.296454866994013,1,1.0099849645666665
3,19-May-2017,1,15,stim.wav,0,23,8904,4.496121361581046,1,1.0099849645666665
3,19-May-2017,1,15,stim.wav,0,24,10000,0.7720755542649184,1,1.0099849645666665
3,19-May-2017,1,15,stim.wav,1,0,100,0.5158468153416194,0,1.0099849645666665
3,19-May-2017,1,15,stim.wav,1,1,191,1.0459065632131461,0,1.0099849645666665
3,19-May-2017,1,15,stim.wav,1,2,293,1.2307847209515574,0,1.0099849645666665
3,19-May-2017,1,15,stim.wav,1,3,406,8.126867599339578,0,1.0099849645666665
3,19-May-2017,1,15,stim.wav,1,4,533,3.9123052806297975,0,1.0099849645666665
3,19-May-2017,1,15,stim.wav,1,5,673,-1.989209471682857,0,1.0099849645666665
3,19-May-2017,1,15,stim.wav,1,6,830,0.050959590514325644,0,1.0099849645666665
3,19-May-2017,1,15,stim.wav,1,7,1004,7.523200044967964,0,1.0099849645666665
3,19-May-2017,1,15,stim.wav,1,8,1199,3.190146947470685,0,1.0099849645666665
3,19-May-2017,1,15,stim.wav,1,9,1416,6.012069973949206,0,1.0099849645666665
3,19-May-2017,1,15,stim.wav,1,10,1657,-8.961190069283397,0,1.0099849645666665
3,19-May-2017,1,15,stim.wav,1,11,1926,-5.098728914346429,0,1.0099849645666665
3,19-May-2017,1,15,stim.wav,1,12,2226,7.725423559479853,0,1.0099849645666665
3,19-May-2017,1,15,stim.wav,1,13,2560,3.877848465304406,0,1.0099849645666665
3,19-May-2017,1,15,stim.wav,1,14,2932,3.365549229862811,0,1.0099849645666665
3,19-May-2017,1,15,stim.wav,1,15,3346,-3.6650118754565026,0,1.0099849645666665
3,19-May-2017,1,15,stim.wav,1,16,3808,0.8770898109220033,0,1.0099849645666665
3,19-May-2017,1,15,stim.wav,1,17,4322,-0.9676822621180863,0,1.0099849645666665
3,19-May-2017,1,15,stim.wav,1,18,4895,-7.0481306904157925,0,1.0099849645666665
3,19-May-2017,1,15,stim.wav,1,19,5534,1.9264160914727282,0,1.0099849645666665
3,19-May-2017,1,15,stim.wav,1,20,6245,1.9265703935510483,0,1.0099849645666665
3,19-May-2017,1,15,stim.wav,1,21,7037,1.4341689793165837,0,1.0099849645666665
3,19-May-2017,1,15,stim.wav,1,22,7920,3.323855962296517,0,1.0099849645666665
3,19-May-2017,1,15,stim.wav,1,23,8904,5.106338039788847,0,1.0099849645666665
3,19-May-2017,1,15,stim.wav,1,24,10000,-2.426582434507741,0,1.0099849645666665
3,19-May-2017,1,16,stim.wav,0,0,100,10.912027854404108,0,0.6060925149541838
3,19-May-2017,1,16,stim.wav,0,1,191,4.78710815529535,0,0.6060925149541838
3,19-May-2017,1,16,stim.wav,0,2,293,-3.441045692872953,0,0.6060925149541838
3,19-May-2017,1,16,stim.wav,0,3,406,1.7381072198410097,0,0.6060925149541838
3,19-May-2017,1,16,stim.wav,0,4,533,0.7801196931490944,0,0.6060925149541838
3,19-May-2017,1,16,stim.wav,0,5,673,-8.43002271921231,0,0.6060925149541838
3,19-May-2017,1,16,stim.wav,0,6,830,-3.7886302032341383,0,0.6060925149541838
3,19-May-2017,1,16,stim.wav,0,7,1004,6.394646272931537,0,0.6060925149541838
3,19-May-2017,1,16,stim.wav,0,8,1199,-1.6452192942293857,0,0.6060925149541838
3,19-May-2017,1,16,stim.wav,0,9,1416,1.223980336214643,0,0.6060925149541838
3,19-May-2017,1,16,stim.wav,0,10,1657,-4.247096871024439,0,0.6060925149541838
3,19-May-2017,1,16,stim.wav,0,11,1926,5.470668809020204,0,0.6060925149541838
3,19-May-2017,1,16,stim.wav,0,12,2226,7.2611763330260874,0,0.6060925149541838
3,19-May-2017,1,16,stim.wav,0,13,2560,0.529392473578931,0,0.6060925149541838
3,19-May-2017,1,16,stim.wav,0,14,2932,2.513415926100027,0,0.6060925149541838
3,19-May-2017,1,16,stim.wav,0,15,3346,-0.9147202151663969,0,0.6060925149541838
3,19-May-2017,1,16,stim.wav,0,16,3808,6.384884162489458,0,0.6060925149541838
3,19-May-2017,1,16,stim.wav,0,17,4322,6.623112162613218,0,0.6060925149541838
3,19-May-2017,1,16,stim.wav,0,18,4895,0.7888472314709953,0,0.6060925149541838
3,19-May-2017,1,16,stim.wav,0,19,5534,2.079990326602355,0,0.6060925149541838
3,19-May-2017,1,16,stim.wav,0,20,6245,-8.216348847486326,0,0.6060925149541838
3,19-May-2017,1,16,stim.wav,0,21,7037,6.518084328705794,0,0.6060925149541838
3,19-May-2017,1,16,stim.wav,0,22,7920,-0.5321461047605023,0,0.6060925149541838
3,19-May-2017,1,16,stim.wav,0,23,8904,-8.96601132650845,0,0.6060925149541838
3,19-May-2017,1,16,stim.wav,0,24,10000,0.3478477802869862,0,0.6060925149541838
3,19-May-2017,1,16,stim.wav,1,0,100,-3.760248815883482,1,0.6060925149541838
3,19-May-2017,1,16,stim.wav,1,1,191,-7.494550981881725,1,0.6060925149541838
3,19-May-2017,1,16,stim.wav,1,2,293,-7.61643778228676,1,0.6060925149541838
3,19-May-2017,1,16,stim.wav,1,3,406,-1.7334993397211416,1,0.6060925149541838
3,19-May-2017,1,16,stim.wav,1,4,533,0.4640368753175663,1,0.6060925149541838
3,19-May-2017,1,16,stim.wav,1,5,673,-6.71992238731079,1,0.6060925149541838
3,19-May-2017,1,16,stim.wav,1,6,830,-6.954267762203472,1,0.6060925149541838
3,19-May-2017,1,16,stim.wav,1,7,1004,0.5702078363675288,1,0.6060925149541838
3,19-May-2017,1,16,stim.wav,1,8,1199,-1.0570734988128554,1,0.6060925149541838
3,19-May-2017,1,16,stim.wav,1,9,1416,3.3173611418539153,1,0.6060925149541838
3,19-May-2017,1,16,stim.wav,1,10,1657,-0.5738568959942979,1,0.6060925149541838
3,19-May-2017,1,16,stim.wav,1,11,1926,-7.734739289635977,1,0.6060925149541838
3,19-May-2017,1,16,stim.wav,1,12,2226,-5.627413419096906,1,0.6060925149541838
3,19-May-2017,1,16,stim.wav,1,13,2560,-2.323192400374132,1,0.6060925149541838
3,19-May-2017,1,16,stim.wav,1,14,2932,-1.750952348288343,1,0.6060925149541838
3,19-May-2017,1,16,stim.wav,1,15,3346,-3.5533544900612437,1,0.6060925149541838
3,19-May-2017,1,16,stim.wav,1,16,3808,1.103348464454144,1,0.6060925149541838
3,19-May-2017,1,16,stim.wav,1,17,4322,-3.4104514670008292,1,0.6060925149541838
3,19-May-2017,1,16,stim.wav,1,18,4895,-1.4926027270777604,1,0.6060925149541838
3,19-May-2017,1,16,stim.wav,1,19,5534,-1.1887978298415867,1,0.6060925149541838
3,19-May-2017,1,16,stim.wav,1,20,6245,-7.07477310893641,1,0.6060925149541838
3,19-May-2017,1,16,stim.wav,1,21,7037,6.989161006460619,1,0.6060925149541838
3,19-May-2017,1,16,stim.wav,1,22,7920,-0.325692666244328,1,0.6060925149541838
3,19-May-2017,1,16,stim.wav,1,23,8904,-7.426857415486748,1,0.6060925149541838
3,19-May-2017,1,16,stim.wav,1,24,10000,-2.912782828893517,1,0.6060925149541838
3,19-May-2017,1,17,stim.wav,0,0,100,0.8225408861083663,0,1.0463019505010955
3,19-May-2017,1,17,stim.wav,0,1,191,2.2127136785728343,0,1.0463019505010955
3,19-May-2017,1,17,stim.wav,0,2,293,5.507248918049963,0,1.0463019505010955
3,19-May-2017,1,17,stim.wav,0,3,406,3.2760071244246713,0,1.0463019505010955
3,19-May-2017,1,17,stim.wav,0,4,533,-4.0562646259179145,0,1.0463019505010955
3,19-May-2017,1,17,stim.wav,0,5,673,-3.2000893512744693,0,1.0463019505010955
3,19-May-2017,1,17,stim.wav,0,6,830,-5.143558032748743,0,1.0463019505010955
3,19-May-2017,1,17,stim.wav,0,7,1004,-0.24460620886560672,0,1.0463019505010955
3,19-May-2017,1,17,stim.wav,0,8,1199,3.33183802688377,0,1.0463019505010955
3,19-May-2017,1,17,stim.wav,0,9,1416,2.3823645084316074,0,1.0463019505010955
3,19-May-2017,1,17,stim.wav,0,10,1657,0.08241975532396516,0,1.0463019505010955
3,19-May-2017,1,17,stim.wav,0,11,1926,-0.05983252628405037,0,1.0463019505010955
3,19-May-2017,1,17,stim.wav,0,12,2226,-5.845799186776265,0,1.0463019505010955
3,19-May-2017,1,17,stim.wav,0,13,2560,-3.176350248083335,0,1.0463019505010955
3,19-May-2017,1,17,stim.wav,0,14,2932,6.838092743669321,0,1.0463019505010955
3,19-May-2017,1,17,stim.wav,0,15,3346,-1.416886109008001,0,1.0463019505010955
3,19-May-2017,1,17,stim.wav,0,16,3808,-2.74752385765637,0,1.0463019505010955
3,19-May-2017,1,17,stim.wav,0,17,4322,-6.81866211436064,0,1.0463019505010955
3,19-May-2017,1,17,stim.wav,0,18,4895,-1.9203167052196712,0,1.0463019505010955
3,19-May-2017,1,17,stim.wav,0,19,5534,-0.08801946599593427,0,1.0463019505010955
3,19-May-2017,1,17,stim.wav,0,20,6245,0.6724135542533678,0,1.0463019505010955
3,19-May-2017,1,17,stim.wav,0,21,7037,6.457694195275031,0,1.0463019505010955
3,19-May-2017,1,17,stim.wav,0,22,7920,-9.326999733226524,0,1.0463019505010955
3,19-May-2017,1,17,stim.wav,0,23,8904,0.6894885040082113,0,1.0463019505010955
3,19-May-2017,1,17,stim.wav,0,24,10000,1.7023428338791255,0,1.0463019505010955
3,19-May-2017,1,17,stim.wav,1,0,100,1.5982408220180409,1,1.0463019505010955
3,19-May-2017,1,17,stim.wav,1,1,191,-4.160284648703103,1,1.0463019505010955
3,19-May-2017,1,17,stim.wav,1,2,293,-2.613385625048746,1,1.0463019505010955
3,19-May-2017,1,17,stim.wav,1,3,406,-0.666701952540456,1,1.0463019505010955
3,19-May-2017,1,17,stim.wav,1,4,533,5.074511921527431,1,1.0463019505010955
3,19-May-2017,1,17,stim.wav,1,5,673,-2.574974275208546,1,1.0463019505010955
3,19-May-2017,1,17,stim.wav,1,6,830,4.14999903638007,1,1.0463019505010955
3,19-May-2017,1,17,stim.wav,1,7,1004,1.696557870468805,1,1.0463019505010955
3,19-May-2017,1,17,stim.wav,1,8,1199,-1.369349807271061,1,1.0463019505010955
3,19-May-2017,1,17,stim.wav,1,9,1416,-8.494538698138923,1,1.0463019505010955
3,19-May-2017,1,17,stim.wav,1,10,1657,-1.5809976861159503,1,1.0463019505010955
3,19-May-2017,1,17,stim.wav,1,11,1926,-7.7913223916391585,1,1.0463019505010955
3,19-May-2017,1,17,stim.wav,1,12,2226,1.7250385723759896,1,1.0463019505010955
3,19-May-2017,1,17,stim.wav,1,13,2560,-5.354663378397496,1,1.0463019505010955
3,19-May-2017,1,17,stim.wav,1,14,2932,11.470615275048807,1,1.0463019505010955
3,19-May-2017,1,17,stim.wav,1,15,3346,4.9955000558772085,1,1.0463019505010955
3,19-May-2017,1,17,stim.wav,1,16,3808,-1.9000656704225345,1,1.0463019505010955
3,19-May-2017,1,17,stim.wav,1,17,4322,-3.61432049016182,1,1.0463019505010955
3,19-May-2017,1,17,stim.wav,1,18,4895,-1.8675587525643078,1,1.0463019505010955
3,19-May-2017,1,17,stim.wav,1,19,5534,-2.9782721487648045,1,1.0463019505010955
3,19-May-2017,1,17,stim.wav,1,20,6245,-10.54987828033175,1,1.0463019505010955
3,19-May-2017,1,17,stim.wav,1,21,7037,-3.4776038282111243,1,1.0463019505010955
3,19-May-2017,1,17,stim.wav,1,22,7920,-2.4026190031969454,1,1.0463019505010955
3,19-May-2017,1,17,stim.wav,1,23,8904,-0.0673508418012709,1,1.0463019505010955
3,19-May-2017,1,17,stim.wav,1,24,10000,-0.9337430678266899,1,1.0463019505010955
3,19-May-2017,1,18,stim.wav,0,0,100,-2.0065455364236735,1,0.5219587457814405
3,19-May-2017,1,18,stim.wav,0,1,191,6.348012954987672,1,0.5219587457814405
3,19-May-2017,1,18,stim.wav,0,2,293,0.15564897075925208,1,0.5219587457814405
3,19-May-2017,1,18,stim.wav,0,3,406,-8.434799199048669,1,0.5219587457814405
3,19-May-2017,1,18,stim.wav,0,4,533,-0.8705211031467635,1,0.5219587457814405
3,19-May-2017,1,18,stim.wav,0,5,673,5.174343489418861,1,0.5219587457814405
3,19-May-2017,1,18,stim.wav,0,6,830,4.733356629065623,1,0.5219587457814405
3,19-May-2017,1,18,stim.wav,0,7,1004,-3.101910711776581,1,0.5219587457814405
3,19-May-2017,1,18,stim.wav,0,8,1199,-0.6365262897979334,1,0.5219587457814405
3,19-May-2017,1,18,stim.wav,0,9,1416,-4.351666720191822,1,0.5219587457814405
3,19-May-2017,1,18,stim.wav,0,10,1657,-4.671866610519702,1,0.5219587457814405
3,19-May-2017,1,18,stim.wav,0,11,1926,4.632526343155111,1,0.5219587457814405
3,19-May-2017,1,18,stim.wav,0,12,2226,0.6162489096224434,1,0.5219587457814405
3,19-May-2017,1,18,stim.wav,0,13,2560,2.1550934683375993,1,0.5219587457814405
3,19-May-2017,1,18,stim.wav,0,14,2932,2.0881493494899424,1,0.5219587457814405
3,19-May-2017,1,18,stim.wav,0,15,3346,0.017613796456747176,1,0.5219587457814405
3,19-May-2017,1,18,stim.wav,0,16,3808,-4.61027069147728,1,0.5219587457814405
3,19-May-2017,1,18,stim.wav,0,17,4322,1.3676843433285697,1,0.5219587457814405
3,19-May-2017,1,18,stim.wav,0,18,4895,4.803754101369318,1,0.5219587457814405
3,19-May-2017,1,18,stim.wav,0,19,5534,-0.6760161168549168,1,0.5219587457814405
3,19-May-2017,1,18,stim.wav,0,20,6245,-4.458653059750564,1,0.5219587457814405
3,19-May-2017,1,18,stim.wav,0,21,7037,-0.27285329953791887,1,0.5219587457814405
3,19-May-2017,1,18,stim.wav,0,22,7920,1.4345449626209938,1,0.5219587457814405
3,19-May-2017,1,18,stim.wav,0,23,8904,6.202323710804867,1,0.5219587457814405
3,19-May-2017,1,18,stim.wav,0,24,10000,3.373547533213372,1,0.5219587457814405
3,19-May-2017,1,18,stim.wav,1,0,100,-11.723799934404797,0,0.5219587457814405
3,19-May-2017,1,18,stim.wav,1,1,191,2.146472436871421,0,0.5219587457814405
3,19-May-2017,1,18,stim.wav,1,2,293,-5.418158896626081,0,0.5219587457814405
3,19-May-2017,1,18,stim.wav,1,3,406,6.093959181806286,0,0.5219587457814405
3,19-May-2017,1,18,stim.wav,1,4,533,0.6190681130929502,0,0.5219587457814405
3,19-May-2017,1,18,stim.wav,1,5,673,-3.2381364089793605,0,0.5219587457814405
3,19-May-2017,1,18,stim.wav,1,6,830,2.914520950660508,0,0.5219587457814405
3,19-May-2017,1,18,stim.wav,1,7,1004,2.475408723900215,0,0.5219587457814405
3,19-May-2017,1,18,stim.wav,1,8,1199,4.457414966966978,0,0.5219587457814405
3,19-May-2017,1,18,stim.wav,1,9,1416,4.605989253967025,0,0.5219587457814405
3,19-May-2017,1,18,stim.wav,1,10,1657,-1.183074473361053,0,0.5219587457814405
3,19-May-2017,1,18,stim.wav,1,11,1926,2.077363447912692,0,0.5219587457814405
3,19-May-2017,1,18,stim.wav,1,12,2226,-2.697418589931818,0,0.5219587457814405
3,19-May-2017,1,18,stim.wav,1,13,2560,-2.2298667396676617,0,0.5219587457814405
3,19-May-2017,1,18,stim.wav,1,14,2932,4.835977155086387,0,0.5219587457814405
3,19-May-2017,1,18,stim.wav,1,15,3346,-2.3078188255762315,0,0.5219587457814405
3,19-May-2017,1,18,stim.wav,1,16,3808,5.301437055988649,0,0.5219587457814405
3,19-May-2017,1,18,stim.wav,1,17,4322,-8.34616830040822,0,0.5219587457814405
3,19-May-2017,1,18,stim.wav,1,18,4895,0.13187943522084108,0,0.5219587457814405
3,19-May-2017,1,18,stim.wav,1,19,5534,2.2630605726798034,0,0.5219587457814405
3,19-May-2017,1,18,stim.wav,1,20,6245,3.996303216102026,0,0.5219587457814405
3,19-May-2017,1,18,stim.wav,1,21,7037,10.462788400149467,0,0.5219587457814405
3,19-May-2017,1,18,stim.wav,1,22,7920,-3.2512905222972712,0,0.5219587457814405
3,19-May-2017,1,18,stim.wav,1,23,8904,-8.561486012230183,0,0.5219587457814405
3,19-May-2017,1,18,stim.wav,1,24,10000,7.279439760408607,0,0.5219587457814405
3,19-May-2017,1,19,stim.wav,0,0,100,3.177561544765195,0,0.579849782507924
3,19-May-2017,1,19,stim.wav,0,1,191,2.5507960429129377,0,0.579849782507924
3,19-May-2017,1,19,stim.wav,0,2,293,1.782014766820105,0,0.579849782507924
3,19-May-2017,1,19,stim.wav,0,3,406,-8.125165946381722,0,0.579849782507924
3,19-May-2017,1,19,stim.wav,0,4,533,1.635494724587152,0,0.579849782507924
3,19-May-2017,1,19,stim.wav,0,5,673,-9.850190490476239,0,0.579849782507924
3,19-May-2017,1,19,stim.wav,0,6,830,-6.529146661393867,0,0.579849782507924
3,19-May-2017,1,19,stim.wav,0,7,1004,6.430790761950826,0,0.579849782507924
3,19-May-2017,1,19,stim.wav,0,8,1199,7.815414955658442,0,0.579849782507924
3,19-May-2017,1,19,stim.wav,0,9,1416,4.630497362408102,0,0.579849782507924
3,19-May-2017,1,19,stim.wav,0,10,1657,-0.5699719398073867,0,0.579849782507924
3,19-May-2017,1,19,stim.wav,0,11,1926,4.689553678246698,0,0.579849782507924
3,19-May-2017,1,19,stim.wav,0,12,2226,-0.029764243501197815,0,0.579849782507924
3,19-May-2017,1,19,stim.wav,0,13,2560,-0.7336703683868738,0,0.579849782507924
3,19-May-2017,1,19,stim.wav,0,14,2932,-4.702981023649298,0,0.579849782507924
3,19-May-2017,1,19,stim.wav,0,15,3346,-12.20748253835535,0,0.579849782507924
3,19-May-2017,1,19,stim.wav,0,16,3808,-3.9333965601248777,0,0.579849782507924
3,19-May-2017,1,19,stim.wav,0,17,4322,9.607296313763749,0,0.579849782507924
3,19-May-2017,1,19,stim.wav,0,18,4895,5.129278892535492,0,0.579849782507924
3,19-May-2017,1,19,stim.wav,0,19,5534,4.279125160692124,0,0.579849782507924
3,19-May-2017,1,19,stim.wav,0,20,6245,2.8681859930487104,0,0.579849782507924
3,19-May-2017,1,19,stim.wav,0,21,7037,-6.0724315215018185,0,0.579849782507924
3,19-May-2017,1,19,stim.wav,0,22,7920,-0.9264419822875442,0,0.579849782507924
3,19-May-2017,1,19,stim.wav,0,23,8904,1.0785497705233933,0,0.579849782507924
3,19-May-2017,1,19,stim.wav,0,24,10000,7.611015611097804,0,0.579849782507924
3,19-May-2017,1,19,stim.wav,1,0,100,-6.660638466808243,1,0.579849782507924
3,19-May-2017,1,19,stim.wav,1,1,191,-5.354295043458265,1,0.579849782507924
3,19-May-2017,1,19,stim.wav,1,2,293,-7.127605166707803,1,0.579849782507924
3,19-May-2017,1,19,stim.wav,1,3,406,0.4831625858180486,1,0.579849782507924
3,19-May-2017,1,19,stim.wav,1,4,533,-3.5308318542510375,1,0.579849782507924
3,19-May-2017,1,19,stim.wav,1,5,673,-0.6030800993797625,1,0.579849782507924
3,19-May-2017,1,19,stim.wav,1,6,830,10.877632641944032,1,0.579849782507924
3,19-May-2017,1,19,stim.wav,1,7,1004,-0.24124654151542652,1,0.579849782507924
3,19-May-2017,1,19,stim.wav,1,8,1199,-8.216697188529428,1,0.579849782507924
3,19-May-2017,1,19,stim.wav,1,9,1416,3.9297408914745455,1,0.579849782507924
3,19-May-2017,1,19,stim.wav,1,10,1657,-9.9687226864809,1,0.579849782507924
3,19-May-2017,1,19,stim.wav,1,11,1926,-5.190236652694287,1,0.579849782507924
3,19-May-2017,1,19,stim.wav,1,12,2226,-6.357681580296944,1,0.579849782507924
3,19-May-2017,1,19,stim.wav,1,13,2560,-0.21031668568032233,1,0.579849782507924
3,19-May-2017,1,19,stim.wav,1,14,2932,2.354145151686105,1,0.579849782507924
3,19-May-2017,1,19,stim.wav,1,15,3346,-4.965768600322027,1,0.579849782507924
3,19-May-2017,1,19,stim.wav,1,16,3808,-2.279982211615234,1,0.579849782507924
3,19-May-2017,1,19,stim.wav,1,17,4322,-4.8387273721028565,1,0.579849782507924
3,19-May-2017,1,19,stim.wav,1,18,4895,-2.4788503072332717,1,0.579849782507924
3,19-May-2017,1,19,stim.wav,1,19,5534,-2.4519042989576727,1,0.579849782507924
3,19-May-2017,1,19,stim.wav,1,20,6245,-4.544388552514011,1,0.579849782507924
3,19-May-2017,1,19,stim.wav,1,21,7037,-2.4140545320215683,1,0.579849782507924
3,19-May-2017,1,19,stim.wav,1,22,7920,2.7256982602642714,1,0.579849782507924
3,19-May-2017,1,19,stim.wav,1,23,8904,2.2049311180043825,1,0.579849782507924
3,19-May-2017,1,19,stim.wav,1,24,10000,7.21841463591498,1,0.579849782507924
3,19-May-2017,1,20,stim.wav,0,0,100,-5.0140828729386016,0,0.7952888975555019
3,19-May-2017,1,20,stim.wav,0,1,191,-0.9622313398546666,0,0.7952888975555019
3,19-May-2017,1,20,stim.wav,0,2,293,-3.5164146403206087,0,0.7952888975555019
3,19-May-2017,1,20,stim.wav,0,3,406,-5.903852391091808,0,0.7952888975555019
3,19-May-2017,1,20,stim.wav,0,4,533,0.24616899162865094,0,0.7952888975555019
3,19-May-2017,1,20,stim.wav,0,5,673,-5.490840981180019,0,0.7952888975555019
3,19-May-2017,1,20,stim.wav,0,6,830,-2.680531572046422,0,0.7952888975555019
3,19-May-2017,1,20,stim.wav,0,7,1004,6.533721925288321,0,0.7952888975555019
3,19-May-2017,1,20,stim.wav,0,8,1199,-0.9749916926714994,0,0.7952888975555019
3,19-May-2017,1,20,stim.wav,0,9,1416,-9.433990307061359,0,0.7952888975555019
3,19-May-2017,1,20,stim.wav,0,10,1657,2.4862452951233522,0,0.7952888975555019
3,19-May-2017,1,20,stim.wav,0,11,1926,2.829621200348231,0,0.7952888975555019
3,19-May-2017,1,20,stim.wav,0,12,2226,-7.621012001562235,0,0.7952888975555019
3,19-May-2017,1,20,stim.wav,0,13,2560,6.566129955144858,0,0.7952888975555019
3,19-May-2017,1,20,stim.wav,0,14,2932,-2.6073011172007994,0,0.7952888975555019
3,19-May-2017,1,20,stim.wav,0,15,3346,-3.350014706106004,0,0.7952888975555019
3,19-May-2017,1,20,stim.wav,0,16,3808,0.9014287427603446,0,0.7952888975555019
3,19-May-2017,1,20,stim.wav,0,17,4322,-3.2067815027983375,0,0.7952888975555019
3,19-May-2017,1,20,stim.wav,0,18,4895,-2.1915668977680443,0,0.7952888975555019
3,19-May-2017,1,20,stim.wav,0,19,5534,0.7029228977062218,0,0.7952888975555019
3,19-May-2017,1,20,stim.wav,0,20,6245,0.7863438773613308,0,0.7952888975555019
3,19-May-2017,1,20,stim.wav,0,21,7037,2.6304067384831775,0,0.7952888975555019
3,19-May-2017,1,20,stim.wav,0,22,7920,-2.6110231788578626,0,0.7952888975555019
3,19-May-2017,1,20,stim.wav,0,23,8904,5.081729137014453,0,0.7952888975555019
3,19-May-2017,1,20,stim.wav,0,24,10000,-4.768908386620155,0,0.7952888975555019
3,19-May-2017,1,20,stim.wav,1,0,100,2.55048646761292,1,0.7952888975555019
3,19-May-2017,1,20,stim.wav,1,1,191,-2.9885337544934476,1,0.7952888975555019
3,19-May-2017,1,20,stim.wav,1,2,293,-2.4077251997321425,1,0.7952888975555019
3,19-May-2017,1,20,stim.wav,1,3,406,1.630511122714473,1,0.7952888975555019
3,19-May-2017,1,20,stim.wav,1,4,533,-0.8204327451147582,1,0.7952888975555019
3,19-May-2017,1,20,stim.wav,1,5,673,3.6383950708322397,1,0.7952888975555019
3,19-May-2017,1,20,stim.wav,1,6,830,2.4358785065766964,1,0.7952888975555019
3,19-May-2017,1,20,stim.wav,1,7,1004,3.2905566900421053,1,0.7952888975555019
3,19-May-2017,1,20,stim.wav,1,8,1199,-2.4597562294936517,1,0.7952888975555019
3,19-May-2017,1,20,stim.wav,1,9,1416,-0.07658627746633369,1,0.7952888975555019
3,19-May-2017,1,20,stim.wav,1,10,1657,-7.593330747891328,1,0.7952888975555019
3,19-May-2017,1,20,stim.wav,1,11,1926,-6.330884596684214,1,0.7952888975555019
3,19-May-2017,1,20,stim.wav,1,12,2226,3.593183319057178,1,0.7952888975555019
3,19-May-2017,1,20,stim.wav,1,13,2560,1.3375812887238505,1,0.7952888975555019
3,19-May-2017,1,20,stim.wav,1,14,2932,-6.563688870592166,1,0.7952888975555019
3,19-May-2017,1,20,stim.wav,1,15,3346,-3.4045006932881945,1,0.7952888975555019
3,19-May-2017,1,20,stim.wav,1,16,3808,-6.0814830525447885,1,0.7952888975555019
3,19-May-2017,1,20,stim.wav,1,17,4322,2.1716984837006366,1,0.7952888975555019
3,19-May-2017,1,20,stim.wav,1,18,4895,3.5319678657517724,1,0.7952888975555019
3,19-May-2017,1,20,stim.wav,1,19,5534,5.069359306138599,1,0.7952888975555019
3,19-May-2017,1,20,stim.wav,1,20,6245,-6.316489907406858,1,0.7952888975555019
3,19-May-2017,1,20,stim.wav,1,21,7037,-4.370774062322987,1,0.7952888975555019
3,19-May-2017,1,20,stim.wav,1,22,7920,0.3991465446486686,1,0.7952888975555019
3,19-May-2017,1,20,stim.wav,1,23,8904,5.809603366762305,1,0.7952888975555019
3,19-May-2017,1,20,stim.wav,1,24,10000,-0.24430969415743634,1,0.7952888975555019
3,19-May-2017,1,21,stim.wav,0,0,100,1.942255899761556,0,1.344697315687653
3,19-May-2017,1,21,stim.wav,0,1,191,1.215341929886364,0,1.344697315687653
3,19-May-2017,1,21,stim.wav,0,2,293,6.692158894879104,0,1.344697315687653
3,19-May-2017,1,21,stim.wav,0,3,406,-5.456174437597772,0,1.344697315687653
3,19-May-2017,1,21,stim.wav,0,4,533,-0.6280899410189804,0,1.344697315687653
3,19-May-2017,1,21,stim.wav,0,5,673,1.6687699225199832,0,1.344697315687653
3,19-May-2017,1,21,stim.wav,0,6,830,0.44130225742879386,0,1.344697315687653
3,19-May-2017,1,21,stim.wav,0,7,1004,-4.970240714678674,0,1.344697315687653
3,19-May-2017,1,21,stim.wav,0,8,1199,-1.0190669745990617,0,1.344697315687653
3,19-May-2017,1,21,stim.wav,0,9,1416,3.184208970670289,0,1.344697315687653
3,19-May-2017,1,21,stim.wav,0,10,1657,-9.907336139532562,0,1.344697315687653
3,19-May-2017,1,21,stim.wav,0,11,1926,2.725892153682921,0,1.344697315687653
3,19-May-2017,1,21,stim.wav,0,12,2226,-7.0761033123787085,0,1.344697315687653
3,19-May-2017,1,21,stim.wav,0,13,2560,0.5105743014754495,0,1.344697315687653
3,19-May-2017,1,21,stim.wav,0,14,2932,-0.6120439336683277,0,1.344697315687653
3,19-May-2017,1,21,stim.wav,0,15,3346,3.4571492356575777,0,1.344697315687653
3,19-May-2017,1,21,stim.wav,0,16,3808,4.485361605341711,0,1.344697315687653
3,19-May-2017,1,21,stim.wav,0,17,4322,-1.8855714201834806,0,1.344697315687653
3,19-May-2017,1,21,stim.wav,0,18,4895,3.6826489765099657,0,1.344697315687653
3,19-May-2017,1,21,stim.wav,0,19,5534,3.9685036247255305,0,1.344697315687653
3,19-May-2017,1,21,stim.wav,0,20,6245,-0.38599043509073444,0,1.344697315687653
3,19-May-2017,1,21,stim.wav,0,21,7037,-0.5413666960118446,0,1.344697315687653
3,19-May-2017,1,21,stim.wav,0,22,7920,-6.514877096929242,0,1.344697315687653
3,19-May-2017,1,21,stim.wav,0,23,8904,1.7304670891675165,0,1.344697315687653
3,19-May-2017,1,21,stim.wav,0,24,10000,-0.3901946753514808,0,1.344697315687653
3,19-May-2017,1,21,stim.wav,1,0,100,-7.077886815562975,1,1.344697315687653
3,19-May-2017,1,21,stim.wav,1,1,191,-8.701891917510137,1,1.344697315687653
3,19-May-2017,1,21,stim.wav,1,2,293,0.9765530727850993,1,1.344697315687653
3,19-May-2017,1,21,stim.wav,1,3,406,-1.3587993108632794,1,1.344697315687653
3,19-May-2017,1,21,stim.wav,1,4,533,-10.564765218066889,1,1.344697315687653
3,19-May-2017,1,21,stim.wav,1,5,673,-1.3507386044401857,1,1.344697315687653
3,19-May-2017,1,21,stim.wav,1,6,830,-0.08167899400491266,1,1.344697315687653
3,19-May-2017,1,21,stim.wav,1,7,1004,-9.459777880825758,1,1.344697315687653
3,19-May-2017,1,21,stim.wav,1,8,1199,-5.454924555870794,1,1.344697315687653
3,19-May-2017,1,21,stim.wav,1,9,1416,-4.335660377920962,1,1.344697315687653
3,19-May-2017,1,21,stim.wav,1,10,1657,4.021222309895326,1,1.344697315687653
3,19-May-2017,1,21,stim.wav,1,11,1926,-5.278743161408573,1,1.344697315687653
3,19-May-2017,1,21,stim.wav,1,12,2226,1.6384734669221743,1,1.344697315687653
3,19-May-2017,1,21,stim.wav,1,13,2560,1.2040677086237115,1,1.344697315687653
3,19-May-2017,1,21,stim.wav,1,14,2932,-3.915899309778567,1,1.344697315687653
3,19-May-2017,1,21,stim.wav,1,15,3346,2.626544863329337,1,1.344697315687653
3,19-May-2017,1,21,stim.wav,1,16,3808,-9.108693893235166,1,1.344697315687653
3,19-May-2017,1,21,stim.wav,1,17,4322,-2.1759425877367917,1,1.344697315687653
3,19-May-2017,1,21,stim.wav,1,18,4895,2.7977802819198794,1,1.344697315687653
3,19-May-2017,1,21,stim.wav,1,19,5534,5.518954989727503,1,1.344697315687653
3,19-May-2017,1,21,stim.wav,1,20,6245,-8.01505047865649,1,1.344697315687653
3,19-May-2017,1,21,stim.wav,1,21,7037,8.368433972102014,1,1.344697315687653
3,19-May-2017,1,21,stim.wav,1,22,7920,-3.9356594309737343,1,1.344697315687653
3,19-May-2017,1,21,stim.wav,1,23,8904,8.316152706572112,1,1.344697315687653
3,19-May-2017,1,21,stim.wav,1,24,10000,-3.102717827654622,1,1.344697315687653
3,19-May-2017,1,22,stim.wav,0,0,100,5.744974319452304,0,1.0980631830303154
3,19-May-2017,1,22,stim.wav,0,1,191,-10.882905121862345,0,1.0980631830303154
3,19-May-2017,1,22,stim.wav,0,2,293,-7.319839618835374,0,1.0980631830303154
3,19-May-2017,1,22,stim.wav,0,3,406,5.213072165558796,0,1.0980631830303154
3,19-May-2017,1,22,stim.wav,0,4,533,-2.8819700865219806,0,1.0980631830303154
3,19-May-2017,1,22,stim.wav,0,5,673,3.7968409742705034,0,1.0980631830303154
3,19-May-2017,1,22,stim.wav,0,6,830,9.02595614193732,0,1.0980631830303154
3,19-May-2017,1,22,stim.wav,0,7,1004,3.087783300436966,0,1.0980631830303154
3,19-May-2017,1,22,stim.wav,0,8,1199,-4.91486451103339,0,1.0980631830303154
3,19-May-2017,1,22,stim.wav,0,9,1416,3.3509168554484923,0,1.0980631830303154
3,19-May-2017,1,22,stim.wav,0,10,1657,-0.7861855174057332,0,1.0980631830303154
3,19-May-2017,1,22,stim.wav,0,11,1926,-1.0327304600757552,0,1.0980631830303154
3,19-May-2017,1,22,stim.wav,0,12,2226,-3.8808809892855822,0,1.0980631830303154
3,19-May-2017,1,22,stim.wav,0,13,2560,5.688478269729597,0,1.0980631830303154
3,19-May-2017,1,22,stim.wav,0,14,2932,-10.565620924446044,0,1.0980631830303154
3,19-May-2017,1,22,stim.wav,0,15,3346,-4.128119094332329,0,1.0980631830303154
3,19-May-2017,1,22,stim.wav,0,16,3808,-1.0279864832215606,0,1.0980631830303154
3,19-May-2017,1,22,stim.wav,0,17,4322,-3.0787709394188614,0,1.0980631830303154
3,19-May-2017,1,22,stim.wav,0,18,4895,1.899583947251593,0,1.0980631830303154
3,19-May-2017,1,22,stim.wav,0,19,5534,6.108252267506997,0,1.0980631830303154
3,19-May-2017,1,22,stim.wav,0,20,6245,-1.1284825165994499,0,1.0980631830303154
3,19-May-2017,1,22,stim.wav,0,21,7037,0.785941754124577,0,1.0980631830303154
3,19-May-2017,1,22,stim.wav,0,22,7920,-1.895714138327578,0,1.0980631830303154
3,19-May-2017,1,22,stim.wav,0,23,8904,-5.584952624740534,0,1.0980631830303154
3,19-May-2017,1,22,stim.wav,0,24,10000,3.1633301499311015,0,1.0980631830303154
3,19-May-2017,1,22,stim.wav,1,0,100,-1.2197063034188151,1,1.0980631830303154
3,19-May-2017,1,22,stim.wav,1,1,191,-7.430954083444549,1,1.0980631830303154
3,19-May-2017,1,22,stim.wav,1,2,293,-0.845770582504079,1,1.0980631830303154
3,19-May-2017,1,22,stim.wav,1,3,406,-3.218687154846668,1,1.0980631830303154
3,19-May-2017,1,22,stim.wav,1,4,533,1.85578838156258,1,1.0980631830303154
3,19-May-2017,1,22,stim.wav,1,5,673,-0.5246409174887859,1,1.0980631830303154
3,19-May-2017,1,22,stim.wav,1,6,830,-3.3403195725414934,1,1.0980631830303154
3,19-May-2017,1,22,stim.wav,1,7,1004,-2.349624465133552,1,1.0980631830303154
3,19-May-2017,1,22,stim.wav,1,8,1199,-2.846128045570619,1,1.0980631830303154
3,19-May-2017,1,22,stim.wav,1,9,1416,-10.556045582266227,1,1.0980631830303154
3,19-May-2017,1,22,stim.wav,1,10,1657,0.38165655748800575,1,1.0980631830303154
3,19-May-2017,1,22,stim.wav,1,11,1926,-0.8022828375113786,1,1.0980631830303154
3,19-May-2017,1,22,stim.wav,1,12,2226,7.609841032352579,1,1.0980631830303154
3,19-May-2017,1,22,stim.wav,1,13,2560,-5.68021681045099,1,1.0980631830303154
3,19-May-2017,1,22,stim.wav,1,14,2932,-8.13102374492614,1,1.0980631830303154
3,19-May-2017,1,22,stim.wav,1,15,3346,-1.6663052088825467,1,1.0980631830303154
3,19-May-2017,1,22,stim.wav,1,16,3808,-1.323947150705901,1,1.0980631830303154
3,19-May-2017,1,22,stim.wav,1,17,4322,2.873979841810645,1,1.0980631830303154
3,19-May-2017,1,22,stim.wav,1,18,4895,9.069544108311739,1,1.0980631830303154
3,19-May-2017,1,22,stim.wav,1,19,5534,-4.31956245627008,1,1.0980631830303154
3,19-May-2017,1,22,stim.wav,1,20,6245,0.23202350185215184,1,1.0980631830303154
3,19-May-2017,1,22,stim.wav,1,21,7037,0.4228926661006902,1,1.0980631830303154
3,19-May-2017,1,22,stim.wav,1,22,7920,-1.1634364098555412,1,1.0980631830303154
3,19-May-2017,1,22,stim.wav,1,23,8904,6.798943254368812,1,1.0980631830303154
3,19-May-2017,1,22,stim.wav,1,24,10000,1.9795631098071418,1,1.0980631830303154
3,19-May-2017,1,23,stim.wav,0,0,100,-1.6484411588397299,0,0.5587184131887606
3,19-May-2017,1,23,stim.wav,0,1,191,3.9807712105015947,0,0.5587184131887606
3,19-May-2017,1,23,stim.wav,0,2,293,0.804321004435925,0,0.5587184131887606
3,19-May-2017,1,23,stim.wav,0,3,406,1.3045824621122912,0,0.5587184131887606
3,19-May-2017,1,23,stim.wav,0,4,533,1.5815937092262882,0,0.5587184131887606
3,19-May-2017,1,23,stim.wav,0,5,673,-2.166930868547458,0,0.5587184131887606
3,19-May-2017,1,23,stim.wav,0,6,830,-4.9677688573369725,0,0.5587184131887606
3,19-May-2017,1,23,stim.wav,0,7,1004,-8.055363335238987,0,0.5587184131887606
3,19-May-2017,1,23,stim.wav,0,8,1199,1.9407170549082071,0,0.5587184131887606
3,19-May-2017,1,23,stim.wav,0,9,1416,0.8072549740300882,0,0.5587184131887606
3,19-May-2017,1,23,stim.wav,0,10,1657,-9.2799301232684,0,0.5587184131887606
3,19-May-2017,1,23,stim.wav,0,11,1926,7.917816680828729,0,0.5587184131887606
3,19-May-2017,1,23,stim.wav,0,12,2226,-9.709090412249196,0,0.5587184131887606
3,19-May-2017,1,23,stim.wav,0,13,2560,5.216930051501688,0,0.5587184131887606
3,19-May-2017,1,23,stim.wav,0,14,2932,5.821183626202377,0,0.5587184131887606
3,19-May-2017,1,23,stim.wav,0,15,3346,-6.2576116517311355,0,0.5587184131887606
3,19-May-2017,1,23,stim.wav,0,16,3808,2.972504611382357,0,0.5587184131887606
3,19-May-2017,1,23,stim.wav,0,17,4322,-3.2724384735193595,0,0.5587184131887606
3,19-May-2017,1,23,stim.wav,0,18,4895,-6.2782713474150995,0,0.5587184131887606
3,19-May-2017,1,23,stim.wav,0,19,5534,-3.7084833542301094,0,0.5587184131887606
3,19-May-2017,1,23,stim.wav,0,20,6245,1.2771002565713019,0,0.5587184131887606
3,19-May-2017,1,23,stim.wav,0,21,7037,6.264818902898444,0,0.5587184131887606
3,19-May-2017,1,23,stim.wav,0,22,7920,1.87124867579824,0,0.5587184131887606
3,19-May-2017,1,23,stim.wav,0,23,8904,-3.0835782098532682,0,0.5587184131887606
3,19-May-2017,1,23,stim.wav,0,24,10000,-5.721060432627601,0,0.5587184131887606
3,19-May-2017,1,23,stim.wav,1,0,100,-3.5116430915011563,1,0.5587184131887606
3,19-May-2017,1,23,stim.wav,1,1,191,-4.950923446940327,1,0.5587184131887606
3,19-May-2017,1,23,stim.wav,1,2,293,-8.212725246326515,1,0.5587184131887606
3,19-May-2017,1,23,stim.wav,1,3,406,3.363305710446263,1,0.5587184131887606
3,19-May-2017,1,23,stim.wav,1,4,533,7.488635746575007,1,0.5587184131887606
3,19-May-2017,1,23,stim.wav,1,5,673,-6.180152342593081,1,0.5587184131887606
3,19-May-2017,1,23,stim.wav,1,6,830,-0.593455963389277,1,0.5587184131887606
3,19-May-2017,1,23,stim.wav,1,7,1004,-4.006391152602763,1,0.5587184131887606
3,19-May-2017,1,23,stim.wav,1,8,1199,-3.5004440812430744,1,0.5587184131887606
3,19-May-2017,1,23,stim.wav,1,9,1416,1.993183293806655,1,0.5587184131887606
3,19-May-2017,1,23,stim.wav,1,10,1657,1.8553825211718802,1,0.5587184131887606
3,19-May-2017,1,23,stim.wav,1,11,1926,-2.4182930456102882,1,0.5587184131887606
3,19-May-2017,1,23,stim.wav,1,12,2226,2.344490707600147,1,0.5587184131887606
3,19-May-2017,1,23,stim.wav,1,13,2560,2.2191978471121336,1,0.5587184131887606
3,19-May-2017,1,23,stim.wav,1,14,2932,-3.3359317655306677,1,0.5587184131887606
3,19-May-2017,1,23,stim.wav,1,15,3346,2.865077334515382,1,0.5587184131887606
3,19-May-2017,1,23,stim.wav,1,16,3808,4.973022666450495,1,0.5587184131887606
3,19-May-2017,1,23,stim.wav,1,17,4322,-1.6820187744449822,1,0.5587184131887606
3,19-May-2017,1,23,stim.wav,1,18,4895,-5.332756179762397,1,0.5587184131887606
3,19-May-2017,1,23,stim.wav,1,19,5534,-1.134166264669492,1,0.5587184131887606
3,19-May-2017,1,23,stim.wav,1,20,6245,4.520466349581152,1,0.5587184131887606
3,19-May-2017,1,23,stim.wav,1,21,7037,-1.4528936981581095,1,0.5587184131887606
3,19-May-2017,1,23,stim.wav,1,22,7920,8.131650627194894,1,0.5587184131887606
3,19-May-2017,1,23,stim.wav,1,23,8904,-0.03481418598991913,1,0.5587184131887606
3,19-May-2017,1,23,stim.wav,1,24,10000,5.023807217369637,1,0.5587184131887606
3,19-May-2017,1,24,stim.wav,0,0,100,0.559835365395427,1,0.7360824742268042
3,19-May-2017,1,24,stim.wav,0,1,191,5.313419371988255,1,0.7360824742268042
3,19-May-2017,1,24,stim.wav,0,2,293,3.0950580869980913,1,0.7360824742268042
3,19-May-2017,1,24,stim.wav,0,3,406,-1.3030663491142027,1,0.7360824742268042
3,19-May-2017,1,24,stim.wav,0,4,533,-1.8637256400415834,1,0.7360824742268042
3,19-May-2017,1,24,stim.wav,0,5,673,3.64706385282469,1,0.7360824742268042
3,19-May-2017,1,24,stim.wav,0,6,830,2.509544069283831,1,0.7360824742268042
3,19-May-2017,1,24,stim.wav,0,7,1004,-4.30389910859936,1,0.7360824742268042
3,19-May-2017,1,24,stim.wav,0,8,1199,8.36412267696435,1,0.7360824742268042
3,19-May-2017,1,24,stim.wav,0,9,1416,-2.5374967002565914,1,0.7360824742268042
3,19-May-2017,1,24,stim.wav,0,10,1657,0.24316847965242264,1,0.7360824742268042
3,19-May-2017,1,24,stim.wav,0,11,1926,-5.223242335904806,1,0.7360824742268042
3,19-May-2017,1,24,stim.wav,0,12,2226,4.397964542322822,1,0.7360824742268042
3,19-May-2017,1,24,stim.wav,0,13,2560,2.452796543866084,1,0.7360824742268042
3,19-May-2017,1,24,stim.wav,0,14,2932,-3.2664014382310587,1,0.7360824742268042
3,19-May-2017,1,24,stim.wav,0,15,3346,-4.389032819666438,1,0.7360824742268042
3,19-May-2017,1,24,stim.wav,0,16,3808,-4.444644201798711,1,0.7360824742268042
3,19-May-2017,1,24,stim.wav,0,17,4322,-1.978686183145134,1,0.7360824742268042
3,19-May-2017,1,24,stim.wav,0,18,4895,1.9978690201390275,1,0.7360824742268042
3,19-May-2017,1,24,stim.wav,0,19,5534,-1.361425495904954,1,0.7360824742268042
3,19-May-2017,1,24,stim.wav,0,20,6245,-6.663407426124981,1,0.7360824742268042
3,19-May-2017,1,24,stim.wav,0,21,7037,-9.0139336031051,1,0.7360824742268042
3,19-May-2017,1,24,stim.wav,0,22,7920,-0.6325403112441619,1,0.7360824742268042
3,19-May-2017,1,24,stim.wav,0,23,8904,8.87464177290594,1,0.7360824742268042
3,19-May-2017,1,24,stim.wav,0,24,10000,-8.17456908843096,1,0.7360824742268042
3,19-May-2017,1,24,stim.wav,1,0,100,3.2807004438848053,0,0.7360824742268042
3,19-May-2017,1,24,stim.wav,1,1,191,5.9016460097826995,0,0.7360824742268042
3,19-May-2017,1,24,stim.wav,1,2,293,-6.583396514751988,0,0.7360824742268042
3,19-May-2017,1,24,stim.wav,1,3,406,-1.5786146013217284,0,0.7360824742268042
3,19-May-2017,1,24,stim.wav,1,4,533,-5.312995551552286,0,0.7360824742268042
3,19-May-2017,1,24,stim.wav,1,5,673,3.7592017412007332,0,0.7360824742268042
3,19-May-2017,1,24,stim.wav,1,6,830,-7.2372944448888,0,0.7360824742268042
3,19-May-2017,1,24,stim.wav,1,7,1004,-0.9772015182614814,0,0.7360824742268042
3,19-May-2017,1,24,stim.wav,1,8,1199,2.4578000369305886,0,0.7360824742268042
3,19-May-2017,1,24,stim.wav,1,9,1416,5.345997686810586,0,0.7360824742268042
3,19-May-2017,1,24,stim.wav,1,10,1657,-2.5520507512359556,0,0.7360824742268042
3,19-May-2017,1,24,stim.wav,1,11,1926,3.4382925571809153,0,0.7360824742268042
3,19-May-2017,1,24,stim.wav,1,12,2226,-1.3648766892525344,0,0.7360824742268042
3,19-May-2017,1,24,stim.wav,1,13,2560,-0.9733071162144326,0,0.7360824742268042
3,19-May-2017,1,24,stim.wav,1,14,2932,3.075144211300743,0,0.7360824742268042
3,19-May-2017,1,24,stim.wav,1,15,3346,-0.6220686447597898,0,0.7360824742268042
3,19-May-2017,1,24,stim.wav,1,16,3808,4.699180461456896,0,0.7360824742268042
3,19-May-2017,1,24,stim.wav,1,17,4322,-2.7520619890310765,0,0.7360824742268042
3,19-May-2017,1,24,stim.wav,1,18,4895,-7.833050183418903,0,0.7360824742268042
3,19-May-2017,1,24,stim.wav,1,19,5534,3.4407288138824867,0,0.7360824742268042
3,19-May-2017,1,24,stim.wav,1,20,6245,-3.812722875496075,0,0.7360824742268042
3,19-May-2017,1,24,stim.wav,1,21,7037,-8.625865312701196,0,0.7360824742268042
3,19-May-2017,1,24,stim.wav,1,22,7920,-7.177780838182003,0,0.7360824742268042
3,19-May-2017,1,24,stim.wav,1,23,8904,-1.7933955317481618,0,0.7360824742268042
3,19-May-2017,1,24,stim.wav,1,24,10000,4.32542140561777,0,0.7360824742268042
3,19-May-2017,1,25,stim.wav,0,0,100,-3.313927956079236,1,0.8874696169642109
3,19-May-2017,1,25,stim.wav,0,1,191,-5.324808958908545,1,0.8874696169642109
3,19-May-2017,1,25,stim.wav,0,2,293,2.261888054054876,1,0.8874696169642109
3,19-May-2017,1,25,stim.wav,0,3,406,-3.6761294679888845,1,0.8874696169642109
3,19-May-2017,1,25,stim.wav,0,4,533,5.386923177282654,1,0.8874696169642109
3,19-May-2017,1,25,stim.wav,0,5,673,-1.3413911028435725,1,0.8874696169642109
3,19-May-2017,1,25,stim.wav,0,6,830,-2.632392527930403,1,0.8874696169642109
3,19-May-2017,1,25,stim.wav,0,7,1004,-0.5100498265013951,1,0.8874696169642109
3,19-May-2017,1,25,stim.wav,0,8,1199,5.231017930628717,1,0.8874696169642109
3,19-May-2017,1,25,stim.wav,0,9,1416,2.624184672271798,1,0.8874696169642109
3,19-May-2017,1,25,stim.wav,0,10,1657,1.9704021255759696,1,0.8874696169642109
3,19-May-2017,1,25,stim.wav,0,11,1926,3.352984714056424,1,0.8874696169642109
3,19-May-2017,1,25,stim.wav,0,12,2226,5.051064694314896,1,0.8874696169642109
3,19-May-2017,1,25,stim.wav,0,13,2560,3.947075392859723,1,0.8874696169642109
3,19-May-2017,1,25,stim.wav,0,14,2932,-1.8197296324938819,1,0.8874696169642109
3,19-May-2017,1,25,stim.wav,0,15,3346,0.15700510340665272,1,0.8874696169642109
3,19-May-2017,1,25,stim.wav,0,16,3808,-1.012990245373133,1,0.8874696169642109
3,19-May-2017,1,25,stim.wav,0,17,4322,-1.7599666856582965,1,0.8874696169642109
3,19-May-2017,1,25,stim.wav,0,18,4895,-1.8129404098484045,1,0.8874696169642109
3,19-May-2017,1,25,stim.wav,0,19,5534,2.3950163897654098,1,0.8874696169642109
3,19-May-2017,1,25,stim.wav,0,20,6245,-5.621581151405496,1,0.8874696169642109
3,19-May-2017,1,25,stim.wav,0,21,7037,-2.4497943284668247,1,0.8874696169642109
3,19-May-2017,1,25,stim.wav,0,22,7920,3.8019700432883763,1,0.8874696169642109
3,19-May-2017,1,25,stim.wav,0,23,8904,-0.37591982809284136,1,0.8874696169642109
3,19-May-2017,1,25,stim.wav,0,24,10000,-4.043972684955679,1,0.8874696169642109
3,19-May-2017,1,25,stim.wav,1,0,100,9.720700852213879,0,0.8874696169642109
3,19-May-2017,1,25,stim.wav,1,1,191,-2.5308020220450533,0,0.8874696169642109
3,19-May-2017,1,25,stim.wav,1,2,293,-0.3929444990781273,0,0.8874696169642109
3,19-May-2017,1,25,stim.wav,1,3,406,2.39671153580625,0,0.8874696169642109
3,19-May-2017,1,25,stim.wav,1,4,533,3.1754139663425267,0,0.8874696169642109
3,19-May-2017,1,25,stim.wav,1,5,673,2.759640663166267,0,0.8874696169642109
3,19-May-2017,1,25,stim.wav,1,6,830,-0.30775632581171253,0,0.8874696169642109
3,19-May-2017,1,25,stim.wav,1,7,1004,0.663284479200063,0,0.8874696169642109
3,19-May-2017,1,25,stim.wav,1,8,1199,2.5597136121319846,0,0.8874696169642109
3,19-May-2017,1,25,stim.wav,1,9,1416,-1.3804444028065896,0,0.8874696169642109
3,19-May-2017,1,25,stim.wav,1,10,1657,10.48421090628233,0,0.8874696169642109
3,19-May-2017,1,25,stim.wav,1,11,1926,-1.5791111496020018,0,0.8874696169642109
3,19-May-2017,1,25,stim.wav,1,12,2226,5.652145075164119,0,0.8874696169642109
3,19-May-2017,1,25,stim.wav,1,13,2560,-1.3402724200260367,0,0.8874696169642109
3,19-May-2017,1,25,stim.wav,1,14,2932,4.518180638682476,0,0.8874696169642109
3,19-May-2017,1,25,stim.wav,1,15,3346,-6.994177233894331,0,0.8874696169642109
3,19-May-2017,1,25,stim.wav,1,16,3808,2.8527946737424066,0,0.8874696169642109
3,19-May-2017,1,25,stim.wav,1,17,4322,5.23445749749484,0,0.8874696169642109
3,19-May-2017,1,25,stim.wav,1,18,4895,-2.554507650171906,0,0.8874696169642109
3,19-May-2017,1,25,stim.wav,1,19,5534,-0.7246058737360079,0,0.8874696169642109
3,19-May-2017,1,25,stim.wav,1,20,6245,-6.411092997767823,0,0.8874696169642109
3,19-May-2017,1,25,stim.wav,1,21,7037,-4.925050498553411,0,0.8874696169642109
3,19-May-2017,1,25,stim.wav,1,22,7920,5.44629236985371,0,0.8874696169642109
3,19-May-2017,1,25,stim.wav,1,23,8904,1.1859329502243556,0,0.8874696169642109
3,19-May-2017,1,25,stim.wav,1,24,10000,4.772106976218843,0,0.8874696169642109
3,19-May-2017,1,26,stim.wav,0,0,100,-3.1048637232655456,0,2.454676293449238
3,19-May-2017,1,26,stim.wav,0,1,191,2.0109201311577056,0,2.454676293449238
3,19-May-2017,1,26,stim.wav,0,2,293,8.208584807809885,0,2.454676293449238
3,19-May-2017,1,26,stim.wav,0,3,406,7.55820629307469,0,2.454676293449238
3,19-May-2017,1,26,stim.wav,0,4,533,-9.100129082930792,0,2.454676293449238
3,19-May-2017,1,26,stim.wav,0,5,673,6.5898185562021165,0,2.454676293449238
3,19-May-2017,1,26,stim.wav,0,6,830,-1.418889965463742,0,2.454676293449238
3,19-May-2017,1,26,stim.wav,0,7,1004,-2.9102014756930554,0,2.454676293449238
3,19-May-2017,1,26,stim.wav,0,8,1199,-11.558070487084017,0,2.454676293449238
3,19-May-2017,1,26,stim.wav,0,9,1416,-1.4604364136661658,0,2.454676293449238
3,19-May-2017,1,26,stim.wav,0,10,1657,5.255766961325868,0,2.454676293449238
3,19-May-2017,1,26,stim.wav,0,11,1926,0.9679424337106491,0,2.454676293449238
3,19-May-2017,1,26,stim.wav,0,12,2226,-7.657335888238238,0,2.454676293449238
3,19-May-2017,1,26,stim.wav,0,13,2560,-1.3387117926518988,0,2.454676293449238
3,19-May-2017,1,26,stim.wav,0,14,2932,4.948157859638726,0,2.454676293449238
3,19-May-2017,1,26,stim.wav,0,15,3346,6.688639213061265,0,2.454676293449238
3,19-May-2017,1,26,stim.wav,0,16,3808,-7.714093521368998,0,2.454676293449238
3,19-May-2017,1,26,stim.wav,0,17,4322,2.714188402593807,0,2.454676293449238
3,19-May-2017,1,26,stim.wav,0,18,4895,0.11532847878495754,0,2.454676293449238
3,19-May-2017,1,26,stim.wav,0,19,5534,-2.4490393713921073,0,2.454676293449238
3,19-May-2017,1,26,stim.wav,0,20,6245,-7.365972135868791,0,2.454676293449238
3,19-May-2017,1,26,stim.wav,0,21,7037,7.466515362606144,0,2.454676293449238
3,19-May-2017,1,26,stim.wav,0,22,7920,-2.141244087255038,0,2.454676293449238
3,19-May-2017,1,26,stim.wav,0,23,8904,-4.1710394336161585,0,2.454676293449238
3,19-May-2017,1,26,stim.wav,0,24,10000,-1.5097355758089617,0,2.454676293449238
3,19-May-2017,1,26,stim.wav,1,0,100,3.6285510116517017,1,2.454676293449238
3,19-May-2017,1,26,stim.wav,1,1,191,-5.628308896794948,1,2.454676293449238
3,19-May-2017,1,26,stim.wav,1,2,293,-5.061237829268083,1,2.454676293449238
3,19-May-2017,1,26,stim.wav,1,3,406,-5.021206095444606,1,2.454676293449238
3,19-May-2017,1,26,stim.wav,1,4,533,7.870833245136493,1,2.454676293449238
3,19-May-2017,1,26,stim.wav,1,5,673,0.2261880119672633,1,2.454676293449238
3,19-May-2017,1,26,stim.wav,1,6,830,-4.756340054825805,1,2.454676293449238
3,19-May-2017,1,26,stim.wav,1,7,1004,1.7526364055315382,1,2.454676293449238
3,19-May-2017,1,26,stim.wav,1,8,1199,-3.9204793784540004,1,2.454676293449238
3,19-May-2017,1,26,stim.wav,1,9,1416,1.8073790258004874,1,2.454676293449238
3,19-May-2017,1,26,stim.wav,1,10,1657,-8.305984538595283,1,2.454676293449238
3,19-May-2017,1,26,stim.wav,1,11,1926,-8.53975894326873,1,2.454676293449238
3,19-May-2017,1,26,stim.wav,1,12,2226,3.2450194137271566,1,2.454676293449238
3,19-May-2017,1,26,stim.wav,1,13,2560,5.51887047569757,1,2.454676293449238
3,19-May-2017,1,26,stim.wav,1,14,2932,-1.3380534380837252,1,2.454676293449238
3,19-May-2017,1,26,stim.wav,1,15,3346,4.423092602343567,1,2.454676293449238
3,19-May-2017,1,26,stim.wav,1,16,3808,-8.517341510616696,1,2.454676293449238
3,19-May-2017,1,26,stim.wav,1,17,4322,-8.120101578880966,1,2.454676293449238
3,19-May-2017,1,26,stim.wav,1,18,4895,0.239582373963807,1,2.454676293449238
3,19-May-2017,1,26,stim.wav,1,19,5534,9.359587038695144,1,2.454676293449238
3,19-May-2017,1,26,stim.wav,1,20,6245,2.174669514191475,1,2.454676293449238
3,19-May-2017,1,26,stim.wav,1,21,7037,0.15066438144855882,1,2.454676293449238
3,19-May-2017,1,26,stim.wav,1,22,7920,-3.9561366895865246,1,2.454676293449238
3,19-May-2017,1,26,stim.wav,1,23,8904,-8.121043695487487,1,2.454676293449238
3,19-May-2017,1,26,stim.wav,1,24,10000,-4.470034970044241,1,2.454676293449238
3,19-May-2017,1,27,stim.wav,0,0,100,0.26976929345281125,0,0.6867799370188106
3,19-May-2017,1,27,stim.wav,0,1,191,6.133753533121341,0,0.6867799370188106
